subject,trial_type,phase,digit,correct,rt,wmtask,parity,task,key_press,value
ck7u5vy4bcgpq3jfezak,html-keyboard-response,baseline,8,1,679.455,spatial,even,parity,65,NA
ck7u5vy4bcgpq3jfezak,html-keyboard-response,baseline,4,1,562.3,spatial,even,parity,65,NA
ck7u5vy4bcgpq3jfezak,html-keyboard-response,baseline,2,1,358.335,spatial,even,parity,65,NA
ck7u5vy4bcgpq3jfezak,html-keyboard-response,baseline,6,1,421.175,spatial,even,parity,65,NA
ck7u5vy4bcgpq3jfezak,html-keyboard-response,baseline,9,1,356.275,spatial,odd,parity,76,NA
ck7u5vy4bcgpq3jfezak,html-keyboard-response,baseline,7,1,347.6,spatial,odd,parity,76,NA
ck7u5vy4bcgpq3jfezak,html-keyboard-response,baseline,3,1,396.405,spatial,odd,parity,76,NA
ck7u5vy4bcgpq3jfezak,html-keyboard-response,baseline,1,1,349.865,spatial,odd,parity,76,NA
ck7u5vy4bcgpq3jfezak,html-keyboard-response,baseline,2,1,323.48,spatial,even,parity,65,NA
ck7u5vy4bcgpq3jfezak,html-keyboard-response,baseline,3,1,354.86,spatial,odd,parity,76,NA
ck7u5vy4bcgpq3jfezak,html-keyboard-response,baseline,4,1,423.24,spatial,even,parity,65,NA
ck7u5vy4bcgpq3jfezak,html-keyboard-response,baseline,1,1,426.895,spatial,odd,parity,76,NA
ck7u5vy4bcgpq3jfezak,html-keyboard-response,baseline,9,1,447.595,spatial,odd,parity,76,NA
ck7u5vy4bcgpq3jfezak,html-keyboard-response,baseline,8,1,458.455,spatial,even,parity,65,NA
ck7u5vy4bcgpq3jfezak,html-keyboard-response,baseline,7,1,428.2,spatial,odd,parity,76,NA
ck7u5vy4bcgpq3jfezak,html-keyboard-response,baseline,6,1,396.33,spatial,even,parity,65,NA
ck7u5vy4bcgpq3jfezak,html-keyboard-response,baseline,8,1,395.98,spatial,even,parity,65,NA
ck7u5vy4bcgpq3jfezak,html-keyboard-response,baseline,1,1,392.41,spatial,odd,parity,76,NA
ck7u5vy4bcgpq3jfezak,html-keyboard-response,baseline,2,1,427.31,spatial,even,parity,65,NA
ck7u5vy4bcgpq3jfezak,html-keyboard-response,baseline,3,1,435.78,spatial,odd,parity,76,NA
ck7u5vy4bcgpq3jfezak,html-keyboard-response,baseline,7,1,494.455,spatial,odd,parity,76,NA
ck7u5vy4bcgpq3jfezak,html-keyboard-response,baseline,6,1,433.005,spatial,even,parity,65,NA
ck7u5vy4bcgpq3jfezak,html-keyboard-response,baseline,9,1,385.81,spatial,odd,parity,76,NA
ck7u5vy4bcgpq3jfezak,html-keyboard-response,baseline,4,1,473.165,spatial,even,parity,65,NA
ck7u5vy4bcgpq3jfezak,html-keyboard-response,baseline,9,1,356.58,spatial,odd,parity,76,NA
ck7u5vy4bcgpq3jfezak,html-keyboard-response,baseline,2,1,343.51,spatial,even,parity,65,NA
ck7u5vy4bcgpq3jfezak,html-keyboard-response,baseline,3,1,370.995,spatial,odd,parity,76,NA
ck7u5vy4bcgpq3jfezak,html-keyboard-response,baseline,8,1,442.27,spatial,even,parity,65,NA
ck7u5vy4bcgpq3jfezak,html-keyboard-response,baseline,7,1,380.475,spatial,odd,parity,76,NA
ck7u5vy4bcgpq3jfezak,html-keyboard-response,baseline,4,1,295.36,spatial,even,parity,65,NA
ck7u5vy4bcgpq3jfezak,html-keyboard-response,baseline,6,1,431.95,spatial,even,parity,65,NA
ck7u5vy4bcgpq3jfezak,html-keyboard-response,baseline,1,1,401.975,spatial,odd,parity,76,NA
ck7u5vy4bcgpq3jfezak,html-keyboard-response,baseline,8,1,371.91,spatial,even,parity,65,NA
ck7u5vy4bcgpq3jfezak,html-keyboard-response,baseline,6,0,367.45,spatial,even,parity,76,NA
ck7u5vy4bcgpq3jfezak,html-keyboard-response,baseline,2,1,426.78,spatial,even,parity,65,NA
ck7u5vy4bcgpq3jfezak,html-keyboard-response,baseline,9,1,420.8,spatial,odd,parity,76,NA
ck7u5vy4bcgpq3jfezak,html-keyboard-response,baseline,1,1,721.11,spatial,odd,parity,76,NA
ck7u5vy4bcgpq3jfezak,html-keyboard-response,baseline,7,1,412.045,spatial,odd,parity,76,NA
ck7u5vy4bcgpq3jfezak,html-keyboard-response,baseline,3,1,492.535,spatial,odd,parity,76,NA
ck7u5vy4bcgpq3jfezak,html-keyboard-response,baseline,4,1,449.39,spatial,even,parity,65,NA
ck7u5vy4bcgpq3jfezak,html-keyboard-response,baseline,9,1,407.58,spatial,odd,parity,76,NA
ck7u5vy4bcgpq3jfezak,html-keyboard-response,baseline,6,1,443.37,spatial,even,parity,65,NA
ck7u5vy4bcgpq3jfezak,html-keyboard-response,baseline,2,1,349.715,spatial,even,parity,65,NA
ck7u5vy4bcgpq3jfezak,html-keyboard-response,baseline,7,1,324.955,spatial,odd,parity,76,NA
ck7u5vy4bcgpq3jfezak,html-keyboard-response,baseline,3,0,358.725,spatial,odd,parity,65,NA
ck7u5vy4bcgpq3jfezak,html-keyboard-response,baseline,4,1,362.635,spatial,even,parity,65,NA
ck7u5vy4bcgpq3jfezak,html-keyboard-response,baseline,1,1,444.46,spatial,odd,parity,76,NA
ck7u5vy4bcgpq3jfezak,html-keyboard-response,baseline,8,1,409.31,spatial,even,parity,65,NA
ck7u5vy4bcgpq3jfezak,html-keyboard-response,baseline,3,1,345.65,spatial,odd,parity,76,NA
ck7u5vy4bcgpq3jfezak,html-keyboard-response,baseline,6,1,401.605,spatial,even,parity,65,NA
ck7u5vy4bcgpq3jfezak,html-keyboard-response,baseline,9,1,472.42,spatial,odd,parity,76,NA
ck7u5vy4bcgpq3jfezak,html-keyboard-response,baseline,7,1,398.56,spatial,odd,parity,76,NA
ck7u5vy4bcgpq3jfezak,html-keyboard-response,baseline,4,1,354.1,spatial,even,parity,65,NA
ck7u5vy4bcgpq3jfezak,html-keyboard-response,baseline,1,1,285.185,spatial,odd,parity,76,NA
ck7u5vy4bcgpq3jfezak,html-keyboard-response,baseline,8,1,455.535,spatial,even,parity,65,NA
ck7u5vy4bcgpq3jfezak,html-keyboard-response,baseline,2,1,374.99,spatial,even,parity,65,NA
ck7u5vy4bcgpq3jfezak,html-keyboard-response,baseline,4,1,496.635,spatial,even,parity,65,NA
ck7u5vy4bcgpq3jfezak,html-keyboard-response,baseline,2,1,357.77,spatial,even,parity,65,NA
ck7u5vy4bcgpq3jfezak,html-keyboard-response,baseline,1,1,410.335,spatial,odd,parity,76,NA
ck7u5vy4bcgpq3jfezak,html-keyboard-response,baseline,8,1,445.305,spatial,even,parity,65,NA
ck7u5vy4bcgpq3jfezak,html-keyboard-response,baseline,3,1,312.17,spatial,odd,parity,76,NA
ck7u5vy4bcgpq3jfezak,html-keyboard-response,baseline,7,1,426.035,spatial,odd,parity,76,NA
ck7u5vy4bcgpq3jfezak,html-keyboard-response,baseline,6,1,523.44,spatial,even,parity,65,NA
ck7u5vy4bcgpq3jfezak,html-keyboard-response,baseline,9,1,405.06,spatial,odd,parity,76,NA
ck7u5vy4bcgpq3jfezak,html-keyboard-response,baseline,2,1,546.1,spatial,even,parity,65,NA
ck7u5vy4bcgpq3jfezak,html-keyboard-response,baseline,6,1,296.54,spatial,even,parity,65,NA
ck7u5vy4bcgpq3jfezak,html-keyboard-response,baseline,1,1,299.7,spatial,odd,parity,76,NA
ck7u5vy4bcgpq3jfezak,html-keyboard-response,baseline,8,1,360.02,spatial,even,parity,65,NA
ck7u5vy4bcgpq3jfezak,html-keyboard-response,baseline,7,1,383.585,spatial,odd,parity,76,NA
ck7u5vy4bcgpq3jfezak,html-keyboard-response,baseline,4,1,450.97,spatial,even,parity,65,NA
ck7u5vy4bcgpq3jfezak,html-keyboard-response,baseline,3,1,375.68,spatial,odd,parity,76,NA
ck7u5vy4bcgpq3jfezak,html-keyboard-response,baseline,9,1,367.055,spatial,odd,parity,76,NA
ck7u5vy4bcgpq3jfezak,html-keyboard-response,baseline,8,1,360.115,spatial,even,parity,65,NA
ck7u5vy4bcgpq3jfezak,html-keyboard-response,baseline,9,1,586.425,spatial,odd,parity,76,NA
ck7u5vy4bcgpq3jfezak,html-keyboard-response,baseline,7,1,430.695,spatial,odd,parity,76,NA
ck7u5vy4bcgpq3jfezak,html-keyboard-response,baseline,3,1,488.31,spatial,odd,parity,76,NA
ck7u5vy4bcgpq3jfezak,html-keyboard-response,baseline,4,1,392.055,spatial,even,parity,65,NA
ck7u5vy4bcgpq3jfezak,html-keyboard-response,baseline,1,1,425.865,spatial,odd,parity,76,NA
ck7u5vy4bcgpq3jfezak,html-keyboard-response,baseline,6,1,444.215,spatial,even,parity,65,NA
ck7u5vy4bcgpq3jfezak,html-keyboard-response,baseline,2,1,404.43,spatial,even,parity,65,NA
ck7u5vy4bcgpq3jfezak,html-keyboard-response,baseline,1,1,325.965,spatial,odd,parity,76,NA
ck7u5vy4bcgpq3jfezak,html-keyboard-response,baseline,7,0,288.975,spatial,odd,parity,65,NA
ck7u5vy4bcgpq3jfezak,html-keyboard-response,baseline,4,1,443.01,spatial,even,parity,65,NA
ck7u5vy4bcgpq3jfezak,html-keyboard-response,baseline,2,1,402.99,spatial,even,parity,65,NA
ck7u5vy4bcgpq3jfezak,html-keyboard-response,baseline,8,0,387.275,spatial,even,parity,76,NA
ck7u5vy4bcgpq3jfezak,html-keyboard-response,baseline,9,1,446.57,spatial,odd,parity,76,NA
ck7u5vy4bcgpq3jfezak,html-keyboard-response,baseline,3,1,446.9,spatial,odd,parity,76,NA
ck7u5vy4bcgpq3jfezak,html-keyboard-response,baseline,6,1,474.455,spatial,even,parity,65,NA
ck7u5vy4bcgpq3jfezak,html-keyboard-response,baseline,9,1,346.355,spatial,odd,parity,76,NA
ck7u5vy4bcgpq3jfezak,html-keyboard-response,baseline,2,1,541.54,spatial,even,parity,65,NA
ck7u5vy4bcgpq3jfezak,html-keyboard-response,baseline,3,1,344.71,spatial,odd,parity,76,NA
ck7u5vy4bcgpq3jfezak,html-keyboard-response,baseline,8,1,406.25,spatial,even,parity,65,NA
ck7u5vy4bcgpq3jfezak,html-keyboard-response,baseline,1,1,427.61,spatial,odd,parity,76,NA
ck7u5vy4bcgpq3jfezak,html-keyboard-response,baseline,7,1,387.305,spatial,odd,parity,76,NA
ck7u5vy4bcgpq3jfezak,html-keyboard-response,baseline,6,1,466.3,spatial,even,parity,65,NA
ck7u5vy4bcgpq3jfezak,html-keyboard-response,baseline,4,1,405.75,spatial,even,parity,65,NA
ck7u5vy4bcgpq3jfezak,html-keyboard-response,baseline,9,1,319.95,spatial,odd,parity,76,NA
ck7u5vy4bcgpq3jfezak,html-keyboard-response,baseline,6,1,357.305,spatial,even,parity,65,NA
ck7u5vy4bcgpq3jfezak,html-keyboard-response,baseline,8,1,413.62,spatial,even,parity,65,NA
ck7u5vy4bcgpq3jfezak,html-keyboard-response,baseline,1,1,462.515,spatial,odd,parity,76,NA
ck7u5vy4bcgpq3jfezak,html-keyboard-response,baseline,4,1,428.075,spatial,even,parity,65,NA
ck7u5vy4bcgpq3jfezak,html-keyboard-response,baseline,2,1,399.59,spatial,even,parity,65,NA
ck7u5vy4bcgpq3jfezak,html-keyboard-response,baseline,7,1,313.665,spatial,odd,parity,76,NA
ck7u5vy4bcgpq3jfezak,html-keyboard-response,baseline,3,1,392.035,spatial,odd,parity,76,NA
ck7u5vy4bcgpq3jfezak,html-keyboard-response,baseline,6,1,442.365,spatial,even,parity,65,NA
ck7u5vy4bcgpq3jfezak,html-keyboard-response,baseline,1,1,380.875,spatial,odd,parity,76,NA
ck7u5vy4bcgpq3jfezak,html-keyboard-response,baseline,8,1,329.79,spatial,even,parity,65,NA
ck7u5vy4bcgpq3jfezak,html-keyboard-response,baseline,2,1,337.925,spatial,even,parity,65,NA
ck7u5vy4bcgpq3jfezak,html-keyboard-response,baseline,4,0,307.345,spatial,even,parity,76,NA
ck7u5vy4bcgpq3jfezak,html-keyboard-response,baseline,9,1,413.74,spatial,odd,parity,76,NA
ck7u5vy4bcgpq3jfezak,html-keyboard-response,baseline,3,1,486.005,spatial,odd,parity,76,NA
ck7u5vy4bcgpq3jfezak,html-keyboard-response,baseline,7,1,336.61,spatial,odd,parity,76,NA
ck7u5vy4bcgpq3jfezak,html-keyboard-response,baseline,4,0,283.975,spatial,even,parity,76,NA
ck7u5vy4bcgpq3jfezak,html-keyboard-response,baseline,3,1,309.925,spatial,odd,parity,76,NA
ck7u5vy4bcgpq3jfezak,html-keyboard-response,baseline,2,1,284.125,spatial,even,parity,65,NA
ck7u5vy4bcgpq3jfezak,html-keyboard-response,baseline,1,1,471.865,spatial,odd,parity,76,NA
ck7u5vy4bcgpq3jfezak,html-keyboard-response,baseline,9,1,576.62,spatial,odd,parity,76,NA
ck7u5vy4bcgpq3jfezak,html-keyboard-response,baseline,8,1,433.135,spatial,even,parity,65,NA
ck7u5vy4bcgpq3jfezak,html-keyboard-response,baseline,7,1,372.09,spatial,odd,parity,76,NA
ck7u5vy4bcgpq3jfezak,html-keyboard-response,baseline,6,1,315.49,spatial,even,parity,65,NA
ck7u5vy4bcgpq3jfezak,html-keyboard-response,baseline,2,0,297.06,spatial,even,parity,76,NA
ck7u5vy4bcgpq3jfezak,html-keyboard-response,baseline,6,1,472.04,spatial,even,parity,65,NA
ck7u5vy4bcgpq3jfezak,html-keyboard-response,baseline,9,1,366.325,spatial,odd,parity,76,NA
ck7u5vy4bcgpq3jfezak,html-keyboard-response,baseline,8,1,469.295,spatial,even,parity,65,NA
ck7u5vy4bcgpq3jfezak,html-keyboard-response,baseline,1,1,335.29,spatial,odd,parity,76,NA
ck7u5vy4bcgpq3jfezak,html-keyboard-response,baseline,4,1,342.155,spatial,even,parity,65,NA
ck7u5vy4bcgpq3jfezak,html-keyboard-response,baseline,7,1,347.325,spatial,odd,parity,76,NA
ck7u5vy4bcgpq3jfezak,html-keyboard-response,baseline,3,1,378.02,spatial,odd,parity,76,NA
ck7u5vy4bcgpq3jfezak,html-keyboard-response,baseline,8,1,580.84,spatial,even,parity,76,NA
ck7u5vy4bcgpq3jfezak,html-keyboard-response,baseline,6,1,346.85,spatial,even,parity,76,NA
ck7u5vy4bcgpq3jfezak,html-keyboard-response,baseline,4,0,310.8,spatial,even,parity,65,NA
ck7u5vy4bcgpq3jfezak,html-keyboard-response,baseline,3,1,399,spatial,odd,parity,65,NA
ck7u5vy4bcgpq3jfezak,html-keyboard-response,baseline,2,1,341.72,spatial,even,parity,76,NA
ck7u5vy4bcgpq3jfezak,html-keyboard-response,baseline,9,1,401.67,spatial,odd,parity,65,NA
ck7u5vy4bcgpq3jfezak,html-keyboard-response,baseline,7,1,497.285,spatial,odd,parity,65,NA
ck7u5vy4bcgpq3jfezak,html-keyboard-response,baseline,1,1,515.795,spatial,odd,parity,65,NA
ck7u5vy4bcgpq3jfezak,html-keyboard-response,baseline,1,1,408.355,spatial,odd,parity,65,NA
ck7u5vy4bcgpq3jfezak,html-keyboard-response,baseline,7,1,334.23,spatial,odd,parity,65,NA
ck7u5vy4bcgpq3jfezak,html-keyboard-response,baseline,3,1,357.61,spatial,odd,parity,65,NA
ck7u5vy4bcgpq3jfezak,html-keyboard-response,baseline,4,1,342.375,spatial,even,parity,76,NA
ck7u5vy4bcgpq3jfezak,html-keyboard-response,baseline,8,1,420.72,spatial,even,parity,76,NA
ck7u5vy4bcgpq3jfezak,html-keyboard-response,baseline,2,1,310.88,spatial,even,parity,76,NA
ck7u5vy4bcgpq3jfezak,html-keyboard-response,baseline,9,1,507.27,spatial,odd,parity,65,NA
ck7u5vy4bcgpq3jfezak,html-keyboard-response,baseline,6,1,398.425,spatial,even,parity,76,NA
ck7u5vy4bcgpq3jfezak,html-keyboard-response,baseline,4,1,407.455,spatial,even,parity,76,NA
ck7u5vy4bcgpq3jfezak,html-keyboard-response,baseline,2,1,378.4,spatial,even,parity,76,NA
ck7u5vy4bcgpq3jfezak,html-keyboard-response,baseline,8,1,488.49,spatial,even,parity,76,NA
ck7u5vy4bcgpq3jfezak,html-keyboard-response,baseline,1,1,445.495,spatial,odd,parity,65,NA
ck7u5vy4bcgpq3jfezak,html-keyboard-response,baseline,7,0,304.89,spatial,odd,parity,76,NA
ck7u5vy4bcgpq3jfezak,html-keyboard-response,baseline,3,1,422.255,spatial,odd,parity,65,NA
ck7u5vy4bcgpq3jfezak,html-keyboard-response,baseline,9,1,380.355,spatial,odd,parity,65,NA
ck7u5vy4bcgpq3jfezak,html-keyboard-response,baseline,6,1,395.855,spatial,even,parity,76,NA
ck7u5vy4bcgpq3jfezak,html-keyboard-response,baseline,8,1,377.6,spatial,even,parity,76,NA
ck7u5vy4bcgpq3jfezak,html-keyboard-response,baseline,9,0,270.405,spatial,odd,parity,76,NA
ck7u5vy4bcgpq3jfezak,html-keyboard-response,baseline,6,1,430.16,spatial,even,parity,76,NA
ck7u5vy4bcgpq3jfezak,html-keyboard-response,baseline,1,1,313.83,spatial,odd,parity,65,NA
ck7u5vy4bcgpq3jfezak,html-keyboard-response,baseline,2,0,381.3,spatial,even,parity,65,NA
ck7u5vy4bcgpq3jfezak,html-keyboard-response,baseline,3,1,443.985,spatial,odd,parity,65,NA
ck7u5vy4bcgpq3jfezak,html-keyboard-response,baseline,4,1,418.125,spatial,even,parity,76,NA
ck7u5vy4bcgpq3jfezak,html-keyboard-response,baseline,7,1,380.785,spatial,odd,parity,65,NA
ck7u5vy4bcgpq3jfezak,html-keyboard-response,baseline,8,1,314.995,spatial,even,parity,76,NA
ck7u5vy4bcgpq3jfezak,html-keyboard-response,baseline,7,1,379.765,spatial,odd,parity,65,NA
ck7u5vy4bcgpq3jfezak,html-keyboard-response,baseline,9,1,414.69,spatial,odd,parity,65,NA
ck7u5vy4bcgpq3jfezak,html-keyboard-response,baseline,2,0,306.76,spatial,even,parity,65,NA
ck7u5vy4bcgpq3jfezak,html-keyboard-response,baseline,6,1,593.8,spatial,even,parity,76,NA
ck7u5vy4bcgpq3jfezak,html-keyboard-response,baseline,1,1,493.74,spatial,odd,parity,65,NA
ck7u5vy4bcgpq3jfezak,html-keyboard-response,baseline,4,1,493.905,spatial,even,parity,76,NA
ck7u5vy4bcgpq3jfezak,html-keyboard-response,baseline,3,1,395.51,spatial,odd,parity,65,NA
ck7u5vy4bcgpq3jfezak,html-keyboard-response,baseline,1,0,297.06,spatial,odd,parity,76,NA
ck7u5vy4bcgpq3jfezak,html-keyboard-response,baseline,9,1,543.01,spatial,odd,parity,65,NA
ck7u5vy4bcgpq3jfezak,html-keyboard-response,baseline,6,1,386.595,spatial,even,parity,76,NA
ck7u5vy4bcgpq3jfezak,html-keyboard-response,baseline,2,1,548.985,spatial,even,parity,76,NA
ck7u5vy4bcgpq3jfezak,html-keyboard-response,baseline,8,1,336.855,spatial,even,parity,76,NA
ck7u5vy4bcgpq3jfezak,html-keyboard-response,baseline,4,1,365.97,spatial,even,parity,76,NA
ck7u5vy4bcgpq3jfezak,html-keyboard-response,baseline,7,1,359.98,spatial,odd,parity,65,NA
ck7u5vy4bcgpq3jfezak,html-keyboard-response,baseline,3,1,441.49,spatial,odd,parity,65,NA
ck7u5vy4bcgpq3jfezak,html-keyboard-response,baseline,3,1,256.04,spatial,odd,parity,65,NA
ck7u5vy4bcgpq3jfezak,html-keyboard-response,baseline,4,1,463.31,spatial,even,parity,76,NA
ck7u5vy4bcgpq3jfezak,html-keyboard-response,baseline,8,1,267.795,spatial,even,parity,76,NA
ck7u5vy4bcgpq3jfezak,html-keyboard-response,baseline,7,1,491.98,spatial,odd,parity,65,NA
ck7u5vy4bcgpq3jfezak,html-keyboard-response,baseline,2,0,509.1,spatial,even,parity,65,NA
ck7u5vy4bcgpq3jfezak,html-keyboard-response,baseline,6,1,297.63,spatial,even,parity,76,NA
ck7u5vy4bcgpq3jfezak,html-keyboard-response,baseline,9,1,356.995,spatial,odd,parity,65,NA
ck7u5vy4bcgpq3jfezak,html-keyboard-response,baseline,1,1,414.825,spatial,odd,parity,65,NA
ck7u5vy4bcgpq3jfezak,html-keyboard-response,baseline,2,0,367.16,spatial,even,parity,65,NA
ck7u5vy4bcgpq3jfezak,html-keyboard-response,baseline,7,1,386.89,spatial,odd,parity,65,NA
ck7u5vy4bcgpq3jfezak,html-keyboard-response,baseline,9,1,459.825,spatial,odd,parity,65,NA
ck7u5vy4bcgpq3jfezak,html-keyboard-response,baseline,1,1,340.485,spatial,odd,parity,65,NA
ck7u5vy4bcgpq3jfezak,html-keyboard-response,baseline,3,1,373.025,spatial,odd,parity,65,NA
ck7u5vy4bcgpq3jfezak,html-keyboard-response,baseline,8,1,437.83,spatial,even,parity,76,NA
ck7u5vy4bcgpq3jfezak,html-keyboard-response,baseline,4,1,619.1,spatial,even,parity,76,NA
ck7u5vy4bcgpq3jfezak,html-keyboard-response,baseline,6,1,327.81,spatial,even,parity,76,NA
ck7u5vy4bcgpq3jfezak,html-keyboard-response,baseline,8,1,268.325,spatial,even,parity,76,NA
ck7u5vy4bcgpq3jfezak,html-keyboard-response,baseline,2,1,401.15,spatial,even,parity,76,NA
ck7u5vy4bcgpq3jfezak,html-keyboard-response,baseline,6,1,376.81,spatial,even,parity,76,NA
ck7u5vy4bcgpq3jfezak,html-keyboard-response,baseline,7,1,387.085,spatial,odd,parity,65,NA
ck7u5vy4bcgpq3jfezak,html-keyboard-response,baseline,3,1,432.26,spatial,odd,parity,65,NA
ck7u5vy4bcgpq3jfezak,html-keyboard-response,baseline,1,1,309.525,spatial,odd,parity,65,NA
ck7u5vy4bcgpq3jfezak,html-keyboard-response,baseline,9,1,310.485,spatial,odd,parity,65,NA
ck7u5vy4bcgpq3jfezak,html-keyboard-response,baseline,4,1,409.535,spatial,even,parity,76,NA
ck7u5vy4bcgpq3jfezak,html-keyboard-response,baseline,8,1,273.54,spatial,even,parity,76,NA
ck7u5vy4bcgpq3jfezak,html-keyboard-response,baseline,1,0,374.14,spatial,odd,parity,76,NA
ck7u5vy4bcgpq3jfezak,html-keyboard-response,baseline,7,1,466.59,spatial,odd,parity,65,NA
ck7u5vy4bcgpq3jfezak,html-keyboard-response,baseline,2,1,347.22,spatial,even,parity,76,NA
ck7u5vy4bcgpq3jfezak,html-keyboard-response,baseline,6,0,345.12,spatial,even,parity,65,NA
ck7u5vy4bcgpq3jfezak,html-keyboard-response,baseline,4,1,437.705,spatial,even,parity,76,NA
ck7u5vy4bcgpq3jfezak,html-keyboard-response,baseline,3,1,353.09,spatial,odd,parity,65,NA
ck7u5vy4bcgpq3jfezak,html-keyboard-response,baseline,9,1,499.115,spatial,odd,parity,65,NA
ck7u5vy4bcgpq3jfezak,html-keyboard-response,baseline,6,1,412.745,spatial,even,parity,76,NA
ck7u5vy4bcgpq3jfezak,html-keyboard-response,baseline,7,0,279.765,spatial,odd,parity,76,NA
ck7u5vy4bcgpq3jfezak,html-keyboard-response,baseline,3,1,470.54,spatial,odd,parity,65,NA
ck7u5vy4bcgpq3jfezak,html-keyboard-response,baseline,2,1,376.815,spatial,even,parity,76,NA
ck7u5vy4bcgpq3jfezak,html-keyboard-response,baseline,8,1,460.685,spatial,even,parity,76,NA
ck7u5vy4bcgpq3jfezak,html-keyboard-response,baseline,9,1,361.64,spatial,odd,parity,65,NA
ck7u5vy4bcgpq3jfezak,html-keyboard-response,baseline,1,1,395.105,spatial,odd,parity,65,NA
ck7u5vy4bcgpq3jfezak,html-keyboard-response,baseline,4,1,390.665,spatial,even,parity,76,NA
ck7u5vy4bcgpq3jfezak,html-keyboard-response,baseline,7,1,364.18,spatial,odd,parity,65,NA
ck7u5vy4bcgpq3jfezak,html-keyboard-response,baseline,4,1,339.95,spatial,even,parity,76,NA
ck7u5vy4bcgpq3jfezak,html-keyboard-response,baseline,3,1,346.655,spatial,odd,parity,65,NA
ck7u5vy4bcgpq3jfezak,html-keyboard-response,baseline,8,1,346.605,spatial,even,parity,76,NA
ck7u5vy4bcgpq3jfezak,html-keyboard-response,baseline,2,1,355.35,spatial,even,parity,76,NA
ck7u5vy4bcgpq3jfezak,html-keyboard-response,baseline,9,1,343.96,spatial,odd,parity,65,NA
ck7u5vy4bcgpq3jfezak,html-keyboard-response,baseline,1,1,399.97,spatial,odd,parity,65,NA
ck7u5vy4bcgpq3jfezak,html-keyboard-response,baseline,6,1,391.075,spatial,even,parity,76,NA
ck7u5vy4bcgpq3jfezak,html-keyboard-response,baseline,1,0,343.355,spatial,odd,parity,76,NA
ck7u5vy4bcgpq3jfezak,html-keyboard-response,baseline,7,1,492.545,spatial,odd,parity,65,NA
ck7u5vy4bcgpq3jfezak,html-keyboard-response,baseline,4,1,396.355,spatial,even,parity,76,NA
ck7u5vy4bcgpq3jfezak,html-keyboard-response,baseline,6,1,449.245,spatial,even,parity,76,NA
ck7u5vy4bcgpq3jfezak,html-keyboard-response,baseline,2,1,387.29,spatial,even,parity,76,NA
ck7u5vy4bcgpq3jfezak,html-keyboard-response,baseline,3,1,396.06,spatial,odd,parity,65,NA
ck7u5vy4bcgpq3jfezak,html-keyboard-response,baseline,8,1,396.615,spatial,even,parity,76,NA
ck7u5vy4bcgpq3jfezak,html-keyboard-response,baseline,9,1,349.445,spatial,odd,parity,65,NA
ck7u5vy4bcgpq3jfezak,html-keyboard-response,baseline,1,1,390.56,spatial,odd,parity,65,NA
ck7u5vy4bcgpq3jfezak,html-keyboard-response,baseline,9,1,404.035,spatial,odd,parity,65,NA
ck7u5vy4bcgpq3jfezak,html-keyboard-response,baseline,3,1,408.175,spatial,odd,parity,65,NA
ck7u5vy4bcgpq3jfezak,html-keyboard-response,baseline,8,1,386.185,spatial,even,parity,76,NA
ck7u5vy4bcgpq3jfezak,html-keyboard-response,baseline,7,1,377.56,spatial,odd,parity,65,NA
ck7u5vy4bcgpq3jfezak,html-keyboard-response,baseline,6,1,350.875,spatial,even,parity,76,NA
ck7u5vy4bcgpq3jfezak,html-keyboard-response,baseline,2,0,370.78,spatial,even,parity,65,NA
ck7u5vy4bcgpq3jfezak,html-keyboard-response,baseline,4,1,484.055,spatial,even,parity,76,NA
ck7u5vy4bcgpq3jfezak,html-keyboard-response,baseline,8,1,404.695,spatial,even,parity,76,NA
ck7u5vy4bcgpq3jfezak,html-keyboard-response,baseline,1,1,302.595,spatial,odd,parity,65,NA
ck7u5vy4bcgpq3jfezak,html-keyboard-response,baseline,3,1,327.12,spatial,odd,parity,65,NA
ck7u5vy4bcgpq3jfezak,html-keyboard-response,baseline,7,1,371.3,spatial,odd,parity,65,NA
ck7u5vy4bcgpq3jfezak,html-keyboard-response,baseline,4,1,464.215,spatial,even,parity,76,NA
ck7u5vy4bcgpq3jfezak,html-keyboard-response,baseline,9,1,442.32,spatial,odd,parity,65,NA
ck7u5vy4bcgpq3jfezak,html-keyboard-response,baseline,2,1,379.98,spatial,even,parity,76,NA
ck7u5vy4bcgpq3jfezak,html-keyboard-response,baseline,6,1,422.665,spatial,even,parity,76,NA
ck7u5vy4bcgpq3jfezak,html-keyboard-response,baseline,3,1,369.38,spatial,odd,parity,65,NA
ck7u5vy4bcgpq3jfezak,html-keyboard-response,baseline,8,1,478.76,spatial,even,parity,76,NA
ck7u5vy4bcgpq3jfezak,html-keyboard-response,baseline,2,1,298.065,spatial,even,parity,76,NA
ck7u5vy4bcgpq3jfezak,html-keyboard-response,baseline,7,1,387.49,spatial,odd,parity,65,NA
ck7u5vy4bcgpq3jfezak,html-keyboard-response,baseline,4,1,440.865,spatial,even,parity,76,NA
ck7u5vy4bcgpq3jfezak,html-keyboard-response,baseline,6,1,337.51,spatial,even,parity,76,NA
ck7u5vy4bcgpq3jfezak,html-keyboard-response,baseline,9,1,427.005,spatial,odd,parity,65,NA
ck7u5vy4bcgpq3jfezak,html-keyboard-response,baseline,1,1,401.71,spatial,odd,parity,65,NA
ck7u5vy4bcgpq3jfezak,corsi,wm-span-practice,NA,1,NA,spatial,NA,wm-span,NA,NA
ck7u5vy4bcgpq3jfezak,corsi,wm-span,NA,1,NA,spatial,NA,wm-span,NA,NA
ck7u5vy4bcgpq3jfezak,corsi,wm-span,NA,1,NA,spatial,NA,wm-span,NA,NA
ck7u5vy4bcgpq3jfezak,corsi,wm-span,NA,1,NA,spatial,NA,wm-span,NA,NA
ck7u5vy4bcgpq3jfezak,corsi,wm-span,NA,1,NA,spatial,NA,wm-span,NA,NA
ck7u5vy4bcgpq3jfezak,corsi,wm-span,NA,1,NA,spatial,NA,wm-span,NA,NA
ck7u5vy4bcgpq3jfezak,corsi,wm-span,NA,1,NA,spatial,NA,wm-span,NA,NA
ck7u5vy4bcgpq3jfezak,corsi,wm-span,NA,1,NA,spatial,NA,wm-span,NA,NA
ck7u5vy4bcgpq3jfezak,corsi,wm-span,NA,1,NA,spatial,NA,wm-span,NA,NA
ck7u5vy4bcgpq3jfezak,corsi,wm-span,NA,1,NA,spatial,NA,wm-span,NA,NA
ck7u5vy4bcgpq3jfezak,corsi,wm-span,NA,1,NA,spatial,NA,wm-span,NA,NA
ck7u5vy4bcgpq3jfezak,corsi,wm-span,NA,1,NA,spatial,NA,wm-span,NA,NA
ck7u5vy4bcgpq3jfezak,corsi,wm-span,NA,1,NA,spatial,NA,wm-span,NA,NA
ck7u5vy4bcgpq3jfezak,corsi,wm-span,NA,0,NA,spatial,NA,wm-span,NA,NA
ck7u5vy4bcgpq3jfezak,corsi,wm-span,NA,1,NA,spatial,NA,wm-span,NA,NA
ck7u5vy4bcgpq3jfezak,corsi,wm-span,NA,1,NA,spatial,NA,wm-span,NA,NA
ck7u5vy4bcgpq3jfezak,corsi,wm-span,NA,1,NA,spatial,NA,wm-span,NA,NA
ck7u5vy4bcgpq3jfezak,corsi,wm-span,NA,0,NA,spatial,NA,wm-span,NA,NA
ck7u5vy4bcgpq3jfezak,corsi,wm-span,NA,0,NA,spatial,NA,wm-span,NA,NA
ck7u5vy4bcgpq3jfezak,call-function,calculate-span,NA,NA,NA,spatial,NA,NA,NA,7
ck7u5vy4bcgpq3jfezak,html-keyboard-response,load,6,1,684.62,spatial,even,parity,65,NA
ck7u5vy4bcgpq3jfezak,html-keyboard-response,load,1,1,435.055,spatial,odd,parity,76,NA
ck7u5vy4bcgpq3jfezak,html-keyboard-response,load,4,1,917.07,spatial,even,parity,65,NA
ck7u5vy4bcgpq3jfezak,html-keyboard-response,load,9,1,361.595,spatial,odd,parity,76,NA
ck7u5vy4bcgpq3jfezak,html-keyboard-response,load,8,1,309.15,spatial,even,parity,65,NA
ck7u5vy4bcgpq3jfezak,html-keyboard-response,load,3,1,292.795,spatial,odd,parity,76,NA
ck7u5vy4bcgpq3jfezak,html-keyboard-response,load,2,1,314.545,spatial,even,parity,65,NA
ck7u5vy4bcgpq3jfezak,html-keyboard-response,load,7,1,321.345,spatial,odd,parity,76,NA
ck7u5vy4bcgpq3jfezak,html-keyboard-response,load,2,1,221.075,spatial,even,parity,65,NA
ck7u5vy4bcgpq3jfezak,html-keyboard-response,load,9,1,419.48,spatial,odd,parity,76,NA
ck7u5vy4bcgpq3jfezak,html-keyboard-response,load,8,1,276.91,spatial,even,parity,65,NA
ck7u5vy4bcgpq3jfezak,html-keyboard-response,load,3,1,316.435,spatial,odd,parity,76,NA
ck7u5vy4bcgpq3jfezak,html-keyboard-response,load,6,1,289.775,spatial,even,parity,65,NA
ck7u5vy4bcgpq3jfezak,html-keyboard-response,load,7,1,396.5,spatial,odd,parity,76,NA
ck7u5vy4bcgpq3jfezak,html-keyboard-response,load,4,1,257.63,spatial,even,parity,65,NA
ck7u5vy4bcgpq3jfezak,html-keyboard-response,load,1,1,365.13,spatial,odd,parity,76,NA
ck7u5vy4bcgpq3jfezak,corsi,load,NA,0,NA,spatial,NA,NA,NA,NA
ck7u5vy4bcgpq3jfezak,html-keyboard-response,load,8,1,805.695,spatial,even,parity,65,NA
ck7u5vy4bcgpq3jfezak,html-keyboard-response,load,9,1,362.81,spatial,odd,parity,76,NA
ck7u5vy4bcgpq3jfezak,html-keyboard-response,load,3,1,463.665,spatial,odd,parity,76,NA
ck7u5vy4bcgpq3jfezak,html-keyboard-response,load,7,1,339.07,spatial,odd,parity,76,NA
ck7u5vy4bcgpq3jfezak,html-keyboard-response,load,1,1,336.075,spatial,odd,parity,76,NA
ck7u5vy4bcgpq3jfezak,html-keyboard-response,load,4,1,438.615,spatial,even,parity,65,NA
ck7u5vy4bcgpq3jfezak,html-keyboard-response,load,6,0,296.19,spatial,even,parity,76,NA
ck7u5vy4bcgpq3jfezak,html-keyboard-response,load,2,0,281.07,spatial,even,parity,76,NA
ck7u5vy4bcgpq3jfezak,html-keyboard-response,load,6,1,470.965,spatial,even,parity,65,NA
ck7u5vy4bcgpq3jfezak,html-keyboard-response,load,1,1,331.185,spatial,odd,parity,76,NA
ck7u5vy4bcgpq3jfezak,html-keyboard-response,load,4,1,423.005,spatial,even,parity,65,NA
ck7u5vy4bcgpq3jfezak,html-keyboard-response,load,7,1,292.345,spatial,odd,parity,76,NA
ck7u5vy4bcgpq3jfezak,html-keyboard-response,load,8,1,301.015,spatial,even,parity,65,NA
ck7u5vy4bcgpq3jfezak,html-keyboard-response,load,9,1,435.47,spatial,odd,parity,76,NA
ck7u5vy4bcgpq3jfezak,html-keyboard-response,load,3,0,254.435,spatial,odd,parity,65,NA
ck7u5vy4bcgpq3jfezak,html-keyboard-response,load,2,1,354.365,spatial,even,parity,65,NA
ck7u5vy4bcgpq3jfezak,corsi,load,NA,0,NA,spatial,NA,NA,NA,NA
ck7u5vy4bcgpq3jfezak,html-keyboard-response,load,1,1,531.605,spatial,odd,parity,76,NA
ck7u5vy4bcgpq3jfezak,html-keyboard-response,load,8,1,476.88,spatial,even,parity,65,NA
ck7u5vy4bcgpq3jfezak,html-keyboard-response,load,3,1,382.43,spatial,odd,parity,76,NA
ck7u5vy4bcgpq3jfezak,html-keyboard-response,load,4,1,399.16,spatial,even,parity,65,NA
ck7u5vy4bcgpq3jfezak,html-keyboard-response,load,2,1,602.225,spatial,even,parity,65,NA
ck7u5vy4bcgpq3jfezak,html-keyboard-response,load,7,1,311.81,spatial,odd,parity,76,NA
ck7u5vy4bcgpq3jfezak,html-keyboard-response,load,6,1,306.64,spatial,even,parity,65,NA
ck7u5vy4bcgpq3jfezak,html-keyboard-response,load,9,1,321.175,spatial,odd,parity,76,NA
ck7u5vy4bcgpq3jfezak,html-keyboard-response,load,1,0,285.115,spatial,odd,parity,65,NA
ck7u5vy4bcgpq3jfezak,html-keyboard-response,load,4,1,339.865,spatial,even,parity,65,NA
ck7u5vy4bcgpq3jfezak,html-keyboard-response,load,7,1,381.62,spatial,odd,parity,76,NA
ck7u5vy4bcgpq3jfezak,html-keyboard-response,load,2,1,330.395,spatial,even,parity,65,NA
ck7u5vy4bcgpq3jfezak,html-keyboard-response,load,8,0,291.085,spatial,even,parity,76,NA
ck7u5vy4bcgpq3jfezak,html-keyboard-response,load,3,1,347.25,spatial,odd,parity,76,NA
ck7u5vy4bcgpq3jfezak,html-keyboard-response,load,6,1,487.56,spatial,even,parity,65,NA
ck7u5vy4bcgpq3jfezak,html-keyboard-response,load,9,1,534.445,spatial,odd,parity,76,NA
ck7u5vy4bcgpq3jfezak,corsi,load,NA,0,NA,spatial,NA,NA,NA,NA
ck7u5vy4bcgpq3jfezak,html-keyboard-response,load,3,1,611.515,spatial,odd,parity,76,NA
ck7u5vy4bcgpq3jfezak,html-keyboard-response,load,7,1,456.15,spatial,odd,parity,76,NA
ck7u5vy4bcgpq3jfezak,html-keyboard-response,load,9,1,420.77,spatial,odd,parity,76,NA
ck7u5vy4bcgpq3jfezak,html-keyboard-response,load,8,1,359.22,spatial,even,parity,65,NA
ck7u5vy4bcgpq3jfezak,html-keyboard-response,load,6,1,337.735,spatial,even,parity,65,NA
ck7u5vy4bcgpq3jfezak,html-keyboard-response,load,2,1,359.22,spatial,even,parity,65,NA
ck7u5vy4bcgpq3jfezak,html-keyboard-response,load,4,1,385.93,spatial,even,parity,65,NA
ck7u5vy4bcgpq3jfezak,html-keyboard-response,load,1,1,329.77,spatial,odd,parity,76,NA
ck7u5vy4bcgpq3jfezak,html-keyboard-response,load,3,1,303.45,spatial,odd,parity,76,NA
ck7u5vy4bcgpq3jfezak,html-keyboard-response,load,4,0,350.795,spatial,even,parity,76,NA
ck7u5vy4bcgpq3jfezak,html-keyboard-response,load,1,1,354.67,spatial,odd,parity,76,NA
ck7u5vy4bcgpq3jfezak,html-keyboard-response,load,7,1,353.465,spatial,odd,parity,76,NA
ck7u5vy4bcgpq3jfezak,html-keyboard-response,load,8,1,287.74,spatial,even,parity,65,NA
ck7u5vy4bcgpq3jfezak,html-keyboard-response,load,6,1,402.775,spatial,even,parity,65,NA
ck7u5vy4bcgpq3jfezak,html-keyboard-response,load,9,1,315.625,spatial,odd,parity,76,NA
ck7u5vy4bcgpq3jfezak,html-keyboard-response,load,2,1,400.315,spatial,even,parity,65,NA
ck7u5vy4bcgpq3jfezak,corsi,load,NA,0,NA,spatial,NA,NA,NA,NA
ck7u5vy4bcgpq3jfezak,html-keyboard-response,load,7,1,567.35,spatial,odd,parity,76,NA
ck7u5vy4bcgpq3jfezak,html-keyboard-response,load,3,1,382.995,spatial,odd,parity,76,NA
ck7u5vy4bcgpq3jfezak,html-keyboard-response,load,8,1,332.14,spatial,even,parity,65,NA
ck7u5vy4bcgpq3jfezak,html-keyboard-response,load,9,1,341.385,spatial,odd,parity,76,NA
ck7u5vy4bcgpq3jfezak,html-keyboard-response,load,1,1,345.465,spatial,odd,parity,76,NA
ck7u5vy4bcgpq3jfezak,html-keyboard-response,load,2,1,531.64,spatial,even,parity,65,NA
ck7u5vy4bcgpq3jfezak,html-keyboard-response,load,4,1,369.285,spatial,even,parity,65,NA
ck7u5vy4bcgpq3jfezak,html-keyboard-response,load,6,0,360.97,spatial,even,parity,76,NA
ck7u5vy4bcgpq3jfezak,html-keyboard-response,load,7,1,336.13,spatial,odd,parity,76,NA
ck7u5vy4bcgpq3jfezak,html-keyboard-response,load,8,1,336.55,spatial,even,parity,65,NA
ck7u5vy4bcgpq3jfezak,html-keyboard-response,load,6,1,498.7,spatial,even,parity,65,NA
ck7u5vy4bcgpq3jfezak,html-keyboard-response,load,1,1,367.505,spatial,odd,parity,76,NA
ck7u5vy4bcgpq3jfezak,html-keyboard-response,load,4,1,441.18,spatial,even,parity,65,NA
ck7u5vy4bcgpq3jfezak,html-keyboard-response,load,9,1,264.125,spatial,odd,parity,76,NA
ck7u5vy4bcgpq3jfezak,html-keyboard-response,load,3,1,339.7,spatial,odd,parity,76,NA
ck7u5vy4bcgpq3jfezak,html-keyboard-response,load,2,1,321.215,spatial,even,parity,65,NA
ck7u5vy4bcgpq3jfezak,corsi,load,NA,0,NA,spatial,NA,NA,NA,NA
ck7u5vy4bcgpq3jfezak,html-keyboard-response,load,2,1,494.5,spatial,even,parity,65,NA
ck7u5vy4bcgpq3jfezak,html-keyboard-response,load,4,1,373.5,spatial,even,parity,65,NA
ck7u5vy4bcgpq3jfezak,html-keyboard-response,load,7,0,319.835,spatial,odd,parity,65,NA
ck7u5vy4bcgpq3jfezak,html-keyboard-response,load,8,1,390.92,spatial,even,parity,65,NA
ck7u5vy4bcgpq3jfezak,html-keyboard-response,load,1,1,577.35,spatial,odd,parity,76,NA
ck7u5vy4bcgpq3jfezak,html-keyboard-response,load,3,1,582.59,spatial,odd,parity,76,NA
ck7u5vy4bcgpq3jfezak,html-keyboard-response,load,9,1,509.09,spatial,odd,parity,76,NA
ck7u5vy4bcgpq3jfezak,html-keyboard-response,load,6,1,299.8,spatial,even,parity,65,NA
ck7u5vy4bcgpq3jfezak,html-keyboard-response,load,3,1,395.17,spatial,odd,parity,76,NA
ck7u5vy4bcgpq3jfezak,html-keyboard-response,load,6,1,352.325,spatial,even,parity,65,NA
ck7u5vy4bcgpq3jfezak,html-keyboard-response,load,2,1,359.61,spatial,even,parity,65,NA
ck7u5vy4bcgpq3jfezak,html-keyboard-response,load,4,1,343.715,spatial,even,parity,65,NA
ck7u5vy4bcgpq3jfezak,html-keyboard-response,load,9,1,389.63,spatial,odd,parity,76,NA
ck7u5vy4bcgpq3jfezak,html-keyboard-response,load,7,1,401.715,spatial,odd,parity,76,NA
ck7u5vy4bcgpq3jfezak,html-keyboard-response,load,8,1,433.285,spatial,even,parity,65,NA
ck7u5vy4bcgpq3jfezak,html-keyboard-response,load,1,1,481.21,spatial,odd,parity,76,NA
ck7u5vy4bcgpq3jfezak,corsi,load,NA,1,NA,spatial,NA,NA,NA,NA
ck7u5vy4bcgpq3jfezak,html-keyboard-response,load,9,1,478.13,spatial,odd,parity,76,NA
ck7u5vy4bcgpq3jfezak,html-keyboard-response,load,3,1,488.01,spatial,odd,parity,76,NA
ck7u5vy4bcgpq3jfezak,html-keyboard-response,load,7,1,391.82,spatial,odd,parity,76,NA
ck7u5vy4bcgpq3jfezak,html-keyboard-response,load,6,1,344.76,spatial,even,parity,65,NA
ck7u5vy4bcgpq3jfezak,html-keyboard-response,load,1,1,369.245,spatial,odd,parity,76,NA
ck7u5vy4bcgpq3jfezak,html-keyboard-response,load,4,1,454.17,spatial,even,parity,65,NA
ck7u5vy4bcgpq3jfezak,html-keyboard-response,load,2,1,411.78,spatial,even,parity,65,NA
ck7u5vy4bcgpq3jfezak,html-keyboard-response,load,8,1,382.645,spatial,even,parity,65,NA
ck7u5vy4bcgpq3jfezak,html-keyboard-response,load,2,1,422.09,spatial,even,parity,65,NA
ck7u5vy4bcgpq3jfezak,html-keyboard-response,load,1,1,409.7,spatial,odd,parity,76,NA
ck7u5vy4bcgpq3jfezak,html-keyboard-response,load,8,1,641.43,spatial,even,parity,65,NA
ck7u5vy4bcgpq3jfezak,html-keyboard-response,load,3,1,336.935,spatial,odd,parity,76,NA
ck7u5vy4bcgpq3jfezak,html-keyboard-response,load,4,1,302.96,spatial,even,parity,65,NA
ck7u5vy4bcgpq3jfezak,html-keyboard-response,load,9,1,318.63,spatial,odd,parity,76,NA
ck7u5vy4bcgpq3jfezak,html-keyboard-response,load,6,1,414.34,spatial,even,parity,65,NA
ck7u5vy4bcgpq3jfezak,html-keyboard-response,load,7,1,545.69,spatial,odd,parity,76,NA
ck7u5vy4bcgpq3jfezak,corsi,load,NA,0,NA,spatial,NA,NA,NA,NA
ck7u5vy4bcgpq3jfezak,html-keyboard-response,load,3,1,486.63,spatial,odd,parity,76,NA
ck7u5vy4bcgpq3jfezak,html-keyboard-response,load,8,1,489.4,spatial,even,parity,65,NA
ck7u5vy4bcgpq3jfezak,html-keyboard-response,load,9,1,310.685,spatial,odd,parity,76,NA
ck7u5vy4bcgpq3jfezak,html-keyboard-response,load,2,1,318.07,spatial,even,parity,65,NA
ck7u5vy4bcgpq3jfezak,html-keyboard-response,load,7,1,373.775,spatial,odd,parity,76,NA
ck7u5vy4bcgpq3jfezak,html-keyboard-response,load,1,1,470.86,spatial,odd,parity,76,NA
ck7u5vy4bcgpq3jfezak,html-keyboard-response,load,6,1,339.78,spatial,even,parity,65,NA
ck7u5vy4bcgpq3jfezak,html-keyboard-response,load,4,0,306.465,spatial,even,parity,76,NA
ck7u5vy4bcgpq3jfezak,html-keyboard-response,load,9,1,315.09,spatial,odd,parity,76,NA
ck7u5vy4bcgpq3jfezak,html-keyboard-response,load,1,1,382.205,spatial,odd,parity,76,NA
ck7u5vy4bcgpq3jfezak,html-keyboard-response,load,4,1,362.685,spatial,even,parity,65,NA
ck7u5vy4bcgpq3jfezak,html-keyboard-response,load,2,1,353.23,spatial,even,parity,65,NA
ck7u5vy4bcgpq3jfezak,html-keyboard-response,load,6,1,492.1,spatial,even,parity,65,NA
ck7u5vy4bcgpq3jfezak,html-keyboard-response,load,7,1,307.91,spatial,odd,parity,76,NA
ck7u5vy4bcgpq3jfezak,html-keyboard-response,load,8,1,298.51,spatial,even,parity,65,NA
ck7u5vy4bcgpq3jfezak,html-keyboard-response,load,3,1,469.39,spatial,odd,parity,76,NA
ck7u5vy4bcgpq3jfezak,corsi,load,NA,1,NA,spatial,NA,NA,NA,NA
ck7u5vy4bcgpq3jfezak,html-keyboard-response,load,8,1,4034.55,spatial,even,parity,65,NA
ck7u5vy4bcgpq3jfezak,html-keyboard-response,load,4,1,437.84,spatial,even,parity,65,NA
ck7u5vy4bcgpq3jfezak,html-keyboard-response,load,9,1,397.765,spatial,odd,parity,76,NA
ck7u5vy4bcgpq3jfezak,html-keyboard-response,load,1,1,549.64,spatial,odd,parity,76,NA
ck7u5vy4bcgpq3jfezak,html-keyboard-response,load,7,1,446.805,spatial,odd,parity,76,NA
ck7u5vy4bcgpq3jfezak,html-keyboard-response,load,6,1,404.355,spatial,even,parity,65,NA
ck7u5vy4bcgpq3jfezak,html-keyboard-response,load,2,1,375.865,spatial,even,parity,65,NA
ck7u5vy4bcgpq3jfezak,html-keyboard-response,load,3,1,347.67,spatial,odd,parity,76,NA
ck7u5vy4bcgpq3jfezak,html-keyboard-response,load,1,0,338.835,spatial,odd,parity,65,NA
ck7u5vy4bcgpq3jfezak,html-keyboard-response,load,7,1,378.58,spatial,odd,parity,76,NA
ck7u5vy4bcgpq3jfezak,html-keyboard-response,load,9,0,336.585,spatial,odd,parity,65,NA
ck7u5vy4bcgpq3jfezak,html-keyboard-response,load,8,1,296.69,spatial,even,parity,65,NA
ck7u5vy4bcgpq3jfezak,html-keyboard-response,load,4,1,485.28,spatial,even,parity,65,NA
ck7u5vy4bcgpq3jfezak,html-keyboard-response,load,2,1,330.55,spatial,even,parity,65,NA
ck7u5vy4bcgpq3jfezak,html-keyboard-response,load,3,1,290.28,spatial,odd,parity,76,NA
ck7u5vy4bcgpq3jfezak,html-keyboard-response,load,6,1,458.775,spatial,even,parity,65,NA
ck7u5vy4bcgpq3jfezak,corsi,load,NA,0,NA,spatial,NA,NA,NA,NA
ck7u5vy4bcgpq3jfezak,html-keyboard-response,load,2,1,445.935,spatial,even,parity,65,NA
ck7u5vy4bcgpq3jfezak,html-keyboard-response,load,4,1,380.75,spatial,even,parity,65,NA
ck7u5vy4bcgpq3jfezak,html-keyboard-response,load,9,1,307.105,spatial,odd,parity,76,NA
ck7u5vy4bcgpq3jfezak,html-keyboard-response,load,8,1,396.905,spatial,even,parity,65,NA
ck7u5vy4bcgpq3jfezak,html-keyboard-response,load,3,1,285.285,spatial,odd,parity,76,NA
ck7u5vy4bcgpq3jfezak,html-keyboard-response,load,1,1,395.895,spatial,odd,parity,76,NA
ck7u5vy4bcgpq3jfezak,html-keyboard-response,load,7,1,378.79,spatial,odd,parity,76,NA
ck7u5vy4bcgpq3jfezak,html-keyboard-response,load,6,1,350.165,spatial,even,parity,65,NA
ck7u5vy4bcgpq3jfezak,html-keyboard-response,load,1,1,382.28,spatial,odd,parity,76,NA
ck7u5vy4bcgpq3jfezak,html-keyboard-response,load,9,1,365.835,spatial,odd,parity,76,NA
ck7u5vy4bcgpq3jfezak,html-keyboard-response,load,8,1,297.845,spatial,even,parity,65,NA
ck7u5vy4bcgpq3jfezak,html-keyboard-response,load,6,1,413.47,spatial,even,parity,65,NA
ck7u5vy4bcgpq3jfezak,html-keyboard-response,load,7,1,293.815,spatial,odd,parity,76,NA
ck7u5vy4bcgpq3jfezak,html-keyboard-response,load,3,1,317.88,spatial,odd,parity,76,NA
ck7u5vy4bcgpq3jfezak,html-keyboard-response,load,4,1,414.175,spatial,even,parity,65,NA
ck7u5vy4bcgpq3jfezak,html-keyboard-response,load,2,1,352.605,spatial,even,parity,65,NA
ck7u5vy4bcgpq3jfezak,corsi,load,NA,0,NA,spatial,NA,NA,NA,NA
ck7u5vy4bcgpq3jfezak,html-keyboard-response,load,4,1,479.975,spatial,even,parity,65,NA
ck7u5vy4bcgpq3jfezak,html-keyboard-response,load,9,1,377.26,spatial,odd,parity,76,NA
ck7u5vy4bcgpq3jfezak,html-keyboard-response,load,6,1,379.175,spatial,even,parity,65,NA
ck7u5vy4bcgpq3jfezak,html-keyboard-response,load,2,1,400.43,spatial,even,parity,65,NA
ck7u5vy4bcgpq3jfezak,html-keyboard-response,load,7,1,285.505,spatial,odd,parity,76,NA
ck7u5vy4bcgpq3jfezak,html-keyboard-response,load,8,1,385.515,spatial,even,parity,65,NA
ck7u5vy4bcgpq3jfezak,html-keyboard-response,load,3,1,264.525,spatial,odd,parity,76,NA
ck7u5vy4bcgpq3jfezak,html-keyboard-response,load,1,1,407.075,spatial,odd,parity,76,NA
ck7u5vy4bcgpq3jfezak,html-keyboard-response,load,7,1,317.44,spatial,odd,parity,76,NA
ck7u5vy4bcgpq3jfezak,html-keyboard-response,load,6,0,276.35,spatial,even,parity,76,NA
ck7u5vy4bcgpq3jfezak,html-keyboard-response,load,1,1,540.865,spatial,odd,parity,76,NA
ck7u5vy4bcgpq3jfezak,html-keyboard-response,load,8,1,344.9,spatial,even,parity,65,NA
ck7u5vy4bcgpq3jfezak,html-keyboard-response,load,4,1,415.445,spatial,even,parity,65,NA
ck7u5vy4bcgpq3jfezak,html-keyboard-response,load,2,1,375.21,spatial,even,parity,65,NA
ck7u5vy4bcgpq3jfezak,html-keyboard-response,load,9,1,371.44,spatial,odd,parity,76,NA
ck7u5vy4bcgpq3jfezak,html-keyboard-response,load,3,0,388.095,spatial,odd,parity,65,NA
ck7u5vy4bcgpq3jfezak,corsi,load,NA,0,NA,spatial,NA,NA,NA,NA
ck7u5vy4bcgpq3jfezak,html-keyboard-response,load,9,1,371.75,spatial,odd,parity,76,NA
ck7u5vy4bcgpq3jfezak,html-keyboard-response,load,3,1,331.745,spatial,odd,parity,76,NA
ck7u5vy4bcgpq3jfezak,html-keyboard-response,load,6,1,390.295,spatial,even,parity,65,NA
ck7u5vy4bcgpq3jfezak,html-keyboard-response,load,4,1,362.835,spatial,even,parity,65,NA
ck7u5vy4bcgpq3jfezak,html-keyboard-response,load,7,1,348.52,spatial,odd,parity,76,NA
ck7u5vy4bcgpq3jfezak,html-keyboard-response,load,2,1,613.18,spatial,even,parity,65,NA
ck7u5vy4bcgpq3jfezak,html-keyboard-response,load,1,1,273.795,spatial,odd,parity,76,NA
ck7u5vy4bcgpq3jfezak,html-keyboard-response,load,8,1,347.4,spatial,even,parity,65,NA
ck7u5vy4bcgpq3jfezak,html-keyboard-response,load,8,1,445.89,spatial,even,parity,65,NA
ck7u5vy4bcgpq3jfezak,html-keyboard-response,load,7,1,334.795,spatial,odd,parity,76,NA
ck7u5vy4bcgpq3jfezak,html-keyboard-response,load,6,1,288.46,spatial,even,parity,65,NA
ck7u5vy4bcgpq3jfezak,html-keyboard-response,load,4,1,441.815,spatial,even,parity,65,NA
ck7u5vy4bcgpq3jfezak,html-keyboard-response,load,2,1,474.55,spatial,even,parity,65,NA
ck7u5vy4bcgpq3jfezak,html-keyboard-response,load,9,1,359.425,spatial,odd,parity,76,NA
ck7u5vy4bcgpq3jfezak,html-keyboard-response,load,1,0,330.64,spatial,odd,parity,65,NA
ck7u5vy4bcgpq3jfezak,html-keyboard-response,load,3,0,490.435,spatial,odd,parity,65,NA
ck7u5vy4bcgpq3jfezak,corsi,load,NA,1,NA,spatial,NA,NA,NA,NA
ck7u5vy4bcgpq3jfezak,html-keyboard-response,load,3,0,624.77,spatial,odd,parity,76,NA
ck7u5vy4bcgpq3jfezak,html-keyboard-response,load,1,1,500.215,spatial,odd,parity,65,NA
ck7u5vy4bcgpq3jfezak,html-keyboard-response,load,8,1,405.09,spatial,even,parity,76,NA
ck7u5vy4bcgpq3jfezak,html-keyboard-response,load,7,1,477.635,spatial,odd,parity,65,NA
ck7u5vy4bcgpq3jfezak,html-keyboard-response,load,9,1,368.515,spatial,odd,parity,65,NA
ck7u5vy4bcgpq3jfezak,html-keyboard-response,load,6,0,312.57,spatial,even,parity,65,NA
ck7u5vy4bcgpq3jfezak,html-keyboard-response,load,2,1,507.92,spatial,even,parity,76,NA
ck7u5vy4bcgpq3jfezak,html-keyboard-response,load,4,1,377.795,spatial,even,parity,76,NA
ck7u5vy4bcgpq3jfezak,html-keyboard-response,load,3,1,378.645,spatial,odd,parity,65,NA
ck7u5vy4bcgpq3jfezak,html-keyboard-response,load,7,1,378.73,spatial,odd,parity,65,NA
ck7u5vy4bcgpq3jfezak,html-keyboard-response,load,9,1,383.235,spatial,odd,parity,65,NA
ck7u5vy4bcgpq3jfezak,html-keyboard-response,load,4,1,381.22,spatial,even,parity,76,NA
ck7u5vy4bcgpq3jfezak,html-keyboard-response,load,1,1,358.905,spatial,odd,parity,65,NA
ck7u5vy4bcgpq3jfezak,html-keyboard-response,load,8,1,261.96,spatial,even,parity,76,NA
ck7u5vy4bcgpq3jfezak,html-keyboard-response,load,2,0,222.09,spatial,even,parity,65,NA
ck7u5vy4bcgpq3jfezak,html-keyboard-response,load,6,1,416.14,spatial,even,parity,76,NA
ck7u5vy4bcgpq3jfezak,corsi,load,NA,0,NA,spatial,NA,NA,NA,NA
ck7u5vy4bcgpq3jfezak,html-keyboard-response,load,8,0,685.01,spatial,even,parity,65,NA
ck7u5vy4bcgpq3jfezak,html-keyboard-response,load,2,1,452.365,spatial,even,parity,76,NA
ck7u5vy4bcgpq3jfezak,html-keyboard-response,load,3,1,435.28,spatial,odd,parity,65,NA
ck7u5vy4bcgpq3jfezak,html-keyboard-response,load,1,1,387.1,spatial,odd,parity,65,NA
ck7u5vy4bcgpq3jfezak,html-keyboard-response,load,6,1,298.715,spatial,even,parity,76,NA
ck7u5vy4bcgpq3jfezak,html-keyboard-response,load,7,1,381.975,spatial,odd,parity,65,NA
ck7u5vy4bcgpq3jfezak,html-keyboard-response,load,9,0,290.125,spatial,odd,parity,76,NA
ck7u5vy4bcgpq3jfezak,html-keyboard-response,load,4,1,281.86,spatial,even,parity,76,NA
ck7u5vy4bcgpq3jfezak,html-keyboard-response,load,3,1,414.59,spatial,odd,parity,65,NA
ck7u5vy4bcgpq3jfezak,html-keyboard-response,load,6,1,294.175,spatial,even,parity,76,NA
ck7u5vy4bcgpq3jfezak,html-keyboard-response,load,2,1,410.395,spatial,even,parity,76,NA
ck7u5vy4bcgpq3jfezak,html-keyboard-response,load,1,1,397.945,spatial,odd,parity,65,NA
ck7u5vy4bcgpq3jfezak,html-keyboard-response,load,7,1,320.525,spatial,odd,parity,65,NA
ck7u5vy4bcgpq3jfezak,html-keyboard-response,load,9,1,453.415,spatial,odd,parity,65,NA
ck7u5vy4bcgpq3jfezak,html-keyboard-response,load,4,1,360.7,spatial,even,parity,76,NA
ck7u5vy4bcgpq3jfezak,html-keyboard-response,load,8,1,308.685,spatial,even,parity,76,NA
ck7u5vy4bcgpq3jfezak,corsi,load,NA,1,NA,spatial,NA,NA,NA,NA
ck7u5vy4bcgpq3jfezak,html-keyboard-response,load,3,1,647.975,spatial,odd,parity,65,NA
ck7u5vy4bcgpq3jfezak,html-keyboard-response,load,4,1,411.285,spatial,even,parity,76,NA
ck7u5vy4bcgpq3jfezak,html-keyboard-response,load,1,1,486.74,spatial,odd,parity,65,NA
ck7u5vy4bcgpq3jfezak,html-keyboard-response,load,8,1,333.59,spatial,even,parity,76,NA
ck7u5vy4bcgpq3jfezak,html-keyboard-response,load,7,1,300.82,spatial,odd,parity,65,NA
ck7u5vy4bcgpq3jfezak,html-keyboard-response,load,2,1,321.325,spatial,even,parity,76,NA
ck7u5vy4bcgpq3jfezak,html-keyboard-response,load,6,1,389.07,spatial,even,parity,76,NA
ck7u5vy4bcgpq3jfezak,html-keyboard-response,load,9,1,274.51,spatial,odd,parity,65,NA
ck7u5vy4bcgpq3jfezak,html-keyboard-response,load,6,1,334.135,spatial,even,parity,76,NA
ck7u5vy4bcgpq3jfezak,html-keyboard-response,load,9,1,374.335,spatial,odd,parity,65,NA
ck7u5vy4bcgpq3jfezak,html-keyboard-response,load,3,1,533.36,spatial,odd,parity,65,NA
ck7u5vy4bcgpq3jfezak,html-keyboard-response,load,1,1,381.41,spatial,odd,parity,65,NA
ck7u5vy4bcgpq3jfezak,html-keyboard-response,load,2,1,331.275,spatial,even,parity,76,NA
ck7u5vy4bcgpq3jfezak,html-keyboard-response,load,4,1,488.89,spatial,even,parity,76,NA
ck7u5vy4bcgpq3jfezak,html-keyboard-response,load,8,1,378.26,spatial,even,parity,76,NA
ck7u5vy4bcgpq3jfezak,html-keyboard-response,load,7,1,367.45,spatial,odd,parity,65,NA
ck7u5vy4bcgpq3jfezak,corsi,load,NA,0,NA,spatial,NA,NA,NA,NA
ck7u5vy4bcgpq3jfezak,html-keyboard-response,load,1,0,519.495,spatial,odd,parity,76,NA
ck7u5vy4bcgpq3jfezak,html-keyboard-response,load,4,1,407.295,spatial,even,parity,76,NA
ck7u5vy4bcgpq3jfezak,html-keyboard-response,load,3,1,435.94,spatial,odd,parity,65,NA
ck7u5vy4bcgpq3jfezak,html-keyboard-response,load,2,1,300.145,spatial,even,parity,76,NA
ck7u5vy4bcgpq3jfezak,html-keyboard-response,load,8,1,343.475,spatial,even,parity,76,NA
ck7u5vy4bcgpq3jfezak,html-keyboard-response,load,9,1,360.74,spatial,odd,parity,65,NA
ck7u5vy4bcgpq3jfezak,html-keyboard-response,load,7,1,463.895,spatial,odd,parity,65,NA
ck7u5vy4bcgpq3jfezak,html-keyboard-response,load,6,1,390.39,spatial,even,parity,76,NA
ck7u5vy4bcgpq3jfezak,html-keyboard-response,load,7,1,395.455,spatial,odd,parity,65,NA
ck7u5vy4bcgpq3jfezak,html-keyboard-response,load,6,1,258.71,spatial,even,parity,76,NA
ck7u5vy4bcgpq3jfezak,html-keyboard-response,load,9,1,292.71,spatial,odd,parity,65,NA
ck7u5vy4bcgpq3jfezak,html-keyboard-response,load,3,1,368.2,spatial,odd,parity,65,NA
ck7u5vy4bcgpq3jfezak,html-keyboard-response,load,4,1,321.35,spatial,even,parity,76,NA
ck7u5vy4bcgpq3jfezak,html-keyboard-response,load,2,1,488.31,spatial,even,parity,76,NA
ck7u5vy4bcgpq3jfezak,html-keyboard-response,load,1,1,384.14,spatial,odd,parity,65,NA
ck7u5vy4bcgpq3jfezak,html-keyboard-response,load,8,1,383.385,spatial,even,parity,76,NA
ck7u5vy4bcgpq3jfezak,corsi,load,NA,0,NA,spatial,NA,NA,NA,NA
ck7u5vy4bcgpq3jfezak,html-keyboard-response,load,8,0,2364.63,spatial,even,parity,65,NA
ck7u5vy4bcgpq3jfezak,html-keyboard-response,load,4,1,417.18,spatial,even,parity,76,NA
ck7u5vy4bcgpq3jfezak,html-keyboard-response,load,3,1,331.875,spatial,odd,parity,65,NA
ck7u5vy4bcgpq3jfezak,html-keyboard-response,load,7,1,568.83,spatial,odd,parity,65,NA
ck7u5vy4bcgpq3jfezak,html-keyboard-response,load,6,1,282.165,spatial,even,parity,76,NA
ck7u5vy4bcgpq3jfezak,html-keyboard-response,load,1,1,246.35,spatial,odd,parity,65,NA
ck7u5vy4bcgpq3jfezak,html-keyboard-response,load,9,1,318.635,spatial,odd,parity,65,NA
ck7u5vy4bcgpq3jfezak,html-keyboard-response,load,2,1,301.185,spatial,even,parity,76,NA
ck7u5vy4bcgpq3jfezak,html-keyboard-response,load,7,1,326.72,spatial,odd,parity,65,NA
ck7u5vy4bcgpq3jfezak,html-keyboard-response,load,4,0,264.9,spatial,even,parity,65,NA
ck7u5vy4bcgpq3jfezak,html-keyboard-response,load,1,1,271.575,spatial,odd,parity,65,NA
ck7u5vy4bcgpq3jfezak,html-keyboard-response,load,6,1,316.02,spatial,even,parity,76,NA
ck7u5vy4bcgpq3jfezak,html-keyboard-response,load,9,1,380.725,spatial,odd,parity,65,NA
ck7u5vy4bcgpq3jfezak,html-keyboard-response,load,8,1,287.355,spatial,even,parity,76,NA
ck7u5vy4bcgpq3jfezak,html-keyboard-response,load,2,0,206.755,spatial,even,parity,65,NA
ck7u5vy4bcgpq3jfezak,html-keyboard-response,load,3,1,224.235,spatial,odd,parity,65,NA
ck7u5vy4bcgpq3jfezak,corsi,load,NA,0,NA,spatial,NA,NA,NA,NA
ck7u5vy4bcgpq3jfezak,html-keyboard-response,load,4,1,671.27,spatial,even,parity,76,NA
ck7u5vy4bcgpq3jfezak,html-keyboard-response,load,7,1,466.29,spatial,odd,parity,65,NA
ck7u5vy4bcgpq3jfezak,html-keyboard-response,load,8,1,357.6,spatial,even,parity,76,NA
ck7u5vy4bcgpq3jfezak,html-keyboard-response,load,2,1,449.925,spatial,even,parity,76,NA
ck7u5vy4bcgpq3jfezak,html-keyboard-response,load,9,1,376.755,spatial,odd,parity,65,NA
ck7u5vy4bcgpq3jfezak,html-keyboard-response,load,1,0,376.205,spatial,odd,parity,76,NA
ck7u5vy4bcgpq3jfezak,html-keyboard-response,load,3,1,502.915,spatial,odd,parity,65,NA
ck7u5vy4bcgpq3jfezak,html-keyboard-response,load,6,1,326.36,spatial,even,parity,76,NA
ck7u5vy4bcgpq3jfezak,html-keyboard-response,load,3,1,328.88,spatial,odd,parity,65,NA
ck7u5vy4bcgpq3jfezak,html-keyboard-response,load,8,1,384.18,spatial,even,parity,76,NA
ck7u5vy4bcgpq3jfezak,html-keyboard-response,load,4,0,353.765,spatial,even,parity,65,NA
ck7u5vy4bcgpq3jfezak,html-keyboard-response,load,2,0,228.635,spatial,even,parity,65,NA
ck7u5vy4bcgpq3jfezak,html-keyboard-response,load,1,1,378.44,spatial,odd,parity,65,NA
ck7u5vy4bcgpq3jfezak,html-keyboard-response,load,9,1,381.745,spatial,odd,parity,65,NA
ck7u5vy4bcgpq3jfezak,html-keyboard-response,load,7,1,302.225,spatial,odd,parity,65,NA
ck7u5vy4bcgpq3jfezak,html-keyboard-response,load,6,1,421.595,spatial,even,parity,76,NA
ck7u5vy4bcgpq3jfezak,corsi,load,NA,0,NA,spatial,NA,NA,NA,NA
ck7u5vy4bcgpq3jfezak,html-keyboard-response,load,3,1,1059.08,spatial,odd,parity,65,NA
ck7u5vy4bcgpq3jfezak,html-keyboard-response,load,2,1,401.145,spatial,even,parity,76,NA
ck7u5vy4bcgpq3jfezak,html-keyboard-response,load,4,1,406.355,spatial,even,parity,76,NA
ck7u5vy4bcgpq3jfezak,html-keyboard-response,load,9,1,558.045,spatial,odd,parity,65,NA
ck7u5vy4bcgpq3jfezak,html-keyboard-response,load,6,1,363.84,spatial,even,parity,76,NA
ck7u5vy4bcgpq3jfezak,html-keyboard-response,load,8,0,251.01,spatial,even,parity,65,NA
ck7u5vy4bcgpq3jfezak,html-keyboard-response,load,7,1,261.945,spatial,odd,parity,65,NA
ck7u5vy4bcgpq3jfezak,html-keyboard-response,load,1,1,320.49,spatial,odd,parity,65,NA
ck7u5vy4bcgpq3jfezak,html-keyboard-response,load,4,1,324.955,spatial,even,parity,76,NA
ck7u5vy4bcgpq3jfezak,html-keyboard-response,load,6,1,378.62,spatial,even,parity,76,NA
ck7u5vy4bcgpq3jfezak,html-keyboard-response,load,8,1,362.52,spatial,even,parity,76,NA
ck7u5vy4bcgpq3jfezak,html-keyboard-response,load,1,1,529.3,spatial,odd,parity,65,NA
ck7u5vy4bcgpq3jfezak,html-keyboard-response,load,9,1,422.56,spatial,odd,parity,65,NA
ck7u5vy4bcgpq3jfezak,html-keyboard-response,load,2,0,305.125,spatial,even,parity,65,NA
ck7u5vy4bcgpq3jfezak,html-keyboard-response,load,3,1,283.18,spatial,odd,parity,65,NA
ck7u5vy4bcgpq3jfezak,html-keyboard-response,load,7,1,281.605,spatial,odd,parity,65,NA
ck7u5vy4bcgpq3jfezak,corsi,load,NA,0,NA,spatial,NA,NA,NA,NA
ck7u5vy4bcgpq3jfezak,html-keyboard-response,load,3,1,2861.57,spatial,odd,parity,65,NA
ck7u5vy4bcgpq3jfezak,html-keyboard-response,load,2,1,585.445,spatial,even,parity,76,NA
ck7u5vy4bcgpq3jfezak,html-keyboard-response,load,4,1,347.925,spatial,even,parity,76,NA
ck7u5vy4bcgpq3jfezak,html-keyboard-response,load,8,1,386.99,spatial,even,parity,76,NA
ck7u5vy4bcgpq3jfezak,html-keyboard-response,load,7,1,311.17,spatial,odd,parity,65,NA
ck7u5vy4bcgpq3jfezak,html-keyboard-response,load,6,0,290.515,spatial,even,parity,65,NA
ck7u5vy4bcgpq3jfezak,html-keyboard-response,load,1,1,296.35,spatial,odd,parity,65,NA
ck7u5vy4bcgpq3jfezak,html-keyboard-response,load,9,1,306.715,spatial,odd,parity,65,NA
ck7u5vy4bcgpq3jfezak,html-keyboard-response,load,1,1,409.59,spatial,odd,parity,65,NA
ck7u5vy4bcgpq3jfezak,html-keyboard-response,load,2,1,299.795,spatial,even,parity,76,NA
ck7u5vy4bcgpq3jfezak,html-keyboard-response,load,4,1,389.595,spatial,even,parity,76,NA
ck7u5vy4bcgpq3jfezak,html-keyboard-response,load,3,1,476.465,spatial,odd,parity,65,NA
ck7u5vy4bcgpq3jfezak,html-keyboard-response,load,7,1,302.015,spatial,odd,parity,65,NA
ck7u5vy4bcgpq3jfezak,html-keyboard-response,load,9,1,707.81,spatial,odd,parity,65,NA
ck7u5vy4bcgpq3jfezak,html-keyboard-response,load,8,1,329.115,spatial,even,parity,76,NA
ck7u5vy4bcgpq3jfezak,html-keyboard-response,load,6,1,359.945,spatial,even,parity,76,NA
ck7u5vy4bcgpq3jfezak,corsi,load,NA,0,NA,spatial,NA,NA,NA,NA
ck7u5vy4bcgpq3jfezak,html-keyboard-response,load,9,0,509.885,spatial,odd,parity,76,NA
ck7u5vy4bcgpq3jfezak,html-keyboard-response,load,4,1,368.24,spatial,even,parity,76,NA
ck7u5vy4bcgpq3jfezak,html-keyboard-response,load,7,1,380.335,spatial,odd,parity,65,NA
ck7u5vy4bcgpq3jfezak,html-keyboard-response,load,1,1,343.225,spatial,odd,parity,65,NA
ck7u5vy4bcgpq3jfezak,html-keyboard-response,load,2,0,233.48,spatial,even,parity,65,NA
ck7u5vy4bcgpq3jfezak,html-keyboard-response,load,8,1,473.05,spatial,even,parity,76,NA
ck7u5vy4bcgpq3jfezak,html-keyboard-response,load,3,1,416.81,spatial,odd,parity,65,NA
ck7u5vy4bcgpq3jfezak,html-keyboard-response,load,6,1,321.325,spatial,even,parity,76,NA
ck7u5vy4bcgpq3jfezak,html-keyboard-response,load,4,1,352.905,spatial,even,parity,76,NA
ck7u5vy4bcgpq3jfezak,html-keyboard-response,load,2,1,380.22,spatial,even,parity,76,NA
ck7u5vy4bcgpq3jfezak,html-keyboard-response,load,1,1,323.515,spatial,odd,parity,65,NA
ck7u5vy4bcgpq3jfezak,html-keyboard-response,load,6,1,423.695,spatial,even,parity,76,NA
ck7u5vy4bcgpq3jfezak,html-keyboard-response,load,3,1,372.025,spatial,odd,parity,65,NA
ck7u5vy4bcgpq3jfezak,html-keyboard-response,load,7,0,275.595,spatial,odd,parity,76,NA
ck7u5vy4bcgpq3jfezak,html-keyboard-response,load,9,1,501.365,spatial,odd,parity,65,NA
ck7u5vy4bcgpq3jfezak,html-keyboard-response,load,8,1,393.255,spatial,even,parity,76,NA
ck7u5vy4bcgpq3jfezak,corsi,load,NA,1,NA,spatial,NA,NA,NA,NA
ck7u5vy4bcgpq3jfezak,html-keyboard-response,load,9,0,463.335,spatial,odd,parity,76,NA
ck7u5vy4bcgpq3jfezak,html-keyboard-response,load,8,1,214.48,spatial,even,parity,76,NA
ck7u5vy4bcgpq3jfezak,html-keyboard-response,load,7,1,388.855,spatial,odd,parity,65,NA
ck7u5vy4bcgpq3jfezak,html-keyboard-response,load,1,1,449.795,spatial,odd,parity,65,NA
ck7u5vy4bcgpq3jfezak,html-keyboard-response,load,4,1,324.71,spatial,even,parity,76,NA
ck7u5vy4bcgpq3jfezak,html-keyboard-response,load,6,1,442.01,spatial,even,parity,76,NA
ck7u5vy4bcgpq3jfezak,html-keyboard-response,load,2,1,364.595,spatial,even,parity,76,NA
ck7u5vy4bcgpq3jfezak,html-keyboard-response,load,3,1,383.935,spatial,odd,parity,65,NA
ck7u5vy4bcgpq3jfezak,html-keyboard-response,load,6,1,341.255,spatial,even,parity,76,NA
ck7u5vy4bcgpq3jfezak,html-keyboard-response,load,1,0,395.525,spatial,odd,parity,76,NA
ck7u5vy4bcgpq3jfezak,html-keyboard-response,load,8,1,318.17,spatial,even,parity,76,NA
ck7u5vy4bcgpq3jfezak,html-keyboard-response,load,3,1,300.625,spatial,odd,parity,65,NA
ck7u5vy4bcgpq3jfezak,html-keyboard-response,load,2,1,388.975,spatial,even,parity,76,NA
ck7u5vy4bcgpq3jfezak,html-keyboard-response,load,4,1,375.22,spatial,even,parity,76,NA
ck7u5vy4bcgpq3jfezak,html-keyboard-response,load,7,1,304.785,spatial,odd,parity,65,NA
ck7u5vy4bcgpq3jfezak,html-keyboard-response,load,9,0,715.425,spatial,odd,parity,76,NA
ck7u5vy4bcgpq3jfezak,corsi,load,NA,0,NA,spatial,NA,NA,NA,NA
ck7u5vy4bcgpq3jfezak,html-keyboard-response,load,9,1,1533.01,spatial,odd,parity,65,NA
ck7u5vy4bcgpq3jfezak,html-keyboard-response,load,6,1,476.495,spatial,even,parity,76,NA
ck7u5vy4bcgpq3jfezak,html-keyboard-response,load,8,1,419.73,spatial,even,parity,76,NA
ck7u5vy4bcgpq3jfezak,html-keyboard-response,load,3,1,303.685,spatial,odd,parity,65,NA
ck7u5vy4bcgpq3jfezak,html-keyboard-response,load,7,1,346.135,spatial,odd,parity,65,NA
ck7u5vy4bcgpq3jfezak,html-keyboard-response,load,2,1,454.31,spatial,even,parity,76,NA
ck7u5vy4bcgpq3jfezak,html-keyboard-response,load,4,0,238.445,spatial,even,parity,65,NA
ck7u5vy4bcgpq3jfezak,html-keyboard-response,load,1,1,267.225,spatial,odd,parity,65,NA
ck7u5vy4bcgpq3jfezak,html-keyboard-response,load,4,1,331.57,spatial,even,parity,76,NA
ck7u5vy4bcgpq3jfezak,html-keyboard-response,load,6,1,356.53,spatial,even,parity,76,NA
ck7u5vy4bcgpq3jfezak,html-keyboard-response,load,9,1,278.405,spatial,odd,parity,65,NA
ck7u5vy4bcgpq3jfezak,html-keyboard-response,load,3,0,600.555,spatial,odd,parity,76,NA
ck7u5vy4bcgpq3jfezak,html-keyboard-response,load,7,1,439.27,spatial,odd,parity,65,NA
ck7u5vy4bcgpq3jfezak,html-keyboard-response,load,1,0,364.41,spatial,odd,parity,76,NA
ck7u5vy4bcgpq3jfezak,html-keyboard-response,load,2,1,247.79,spatial,even,parity,76,NA
ck7u5vy4bcgpq3jfezak,html-keyboard-response,load,8,1,416.955,spatial,even,parity,76,NA
ck7u5vy4bcgpq3jfezak,corsi,load,NA,0,NA,spatial,NA,NA,NA,NA
ck7u5vy4bcgpq3jfezak,html-keyboard-response,load,1,1,420.555,spatial,odd,parity,65,NA
ck7u5vy4bcgpq3jfezak,html-keyboard-response,load,8,1,356.55,spatial,even,parity,76,NA
ck7u5vy4bcgpq3jfezak,html-keyboard-response,load,3,1,406.07,spatial,odd,parity,65,NA
ck7u5vy4bcgpq3jfezak,html-keyboard-response,load,9,1,370.305,spatial,odd,parity,65,NA
ck7u5vy4bcgpq3jfezak,html-keyboard-response,load,2,1,505.26,spatial,even,parity,76,NA
ck7u5vy4bcgpq3jfezak,html-keyboard-response,load,7,1,312.8,spatial,odd,parity,65,NA
ck7u5vy4bcgpq3jfezak,html-keyboard-response,load,4,1,421.15,spatial,even,parity,76,NA
ck7u5vy4bcgpq3jfezak,html-keyboard-response,load,6,1,443.95,spatial,even,parity,76,NA
ck7u5vy4bcgpq3jfezak,html-keyboard-response,load,9,1,295.265,spatial,odd,parity,65,NA
ck7u5vy4bcgpq3jfezak,html-keyboard-response,load,8,1,411.58,spatial,even,parity,76,NA
ck7u5vy4bcgpq3jfezak,html-keyboard-response,load,3,1,264.09,spatial,odd,parity,65,NA
ck7u5vy4bcgpq3jfezak,html-keyboard-response,load,4,1,315.49,spatial,even,parity,76,NA
ck7u5vy4bcgpq3jfezak,html-keyboard-response,load,1,1,288.27,spatial,odd,parity,65,NA
ck7u5vy4bcgpq3jfezak,html-keyboard-response,load,6,1,417.85,spatial,even,parity,76,NA
ck7u5vy4bcgpq3jfezak,html-keyboard-response,load,2,1,439.32,spatial,even,parity,76,NA
ck7u5vy4bcgpq3jfezak,html-keyboard-response,load,7,1,360.975,spatial,odd,parity,65,NA
ck7u5vy4bcgpq3jfezak,corsi,load,NA,0,NA,spatial,NA,NA,NA,NA
4wedfob3kk7mtkvjh1qb,html-keyboard-response,baseline,2,1,791,spatial,even,parity,76,NA
4wedfob3kk7mtkvjh1qb,html-keyboard-response,baseline,1,1,618,spatial,odd,parity,65,NA
4wedfob3kk7mtkvjh1qb,html-keyboard-response,baseline,3,1,781,spatial,odd,parity,65,NA
4wedfob3kk7mtkvjh1qb,html-keyboard-response,baseline,6,1,516,spatial,even,parity,76,NA
4wedfob3kk7mtkvjh1qb,html-keyboard-response,baseline,4,1,611,spatial,even,parity,76,NA
4wedfob3kk7mtkvjh1qb,html-keyboard-response,baseline,7,1,560,spatial,odd,parity,65,NA
4wedfob3kk7mtkvjh1qb,html-keyboard-response,baseline,9,1,682,spatial,odd,parity,65,NA
4wedfob3kk7mtkvjh1qb,html-keyboard-response,baseline,8,1,647,spatial,even,parity,76,NA
4wedfob3kk7mtkvjh1qb,html-keyboard-response,baseline,6,1,640,spatial,even,parity,76,NA
4wedfob3kk7mtkvjh1qb,html-keyboard-response,baseline,4,1,571,spatial,even,parity,76,NA
4wedfob3kk7mtkvjh1qb,html-keyboard-response,baseline,3,1,611,spatial,odd,parity,65,NA
4wedfob3kk7mtkvjh1qb,html-keyboard-response,baseline,8,1,797,spatial,even,parity,76,NA
4wedfob3kk7mtkvjh1qb,html-keyboard-response,baseline,9,0,671,spatial,odd,parity,76,NA
4wedfob3kk7mtkvjh1qb,html-keyboard-response,baseline,7,1,662,spatial,odd,parity,65,NA
4wedfob3kk7mtkvjh1qb,html-keyboard-response,baseline,1,1,925,spatial,odd,parity,65,NA
4wedfob3kk7mtkvjh1qb,html-keyboard-response,baseline,2,1,779,spatial,even,parity,76,NA
4wedfob3kk7mtkvjh1qb,html-keyboard-response,baseline,6,1,1642,spatial,even,parity,76,NA
4wedfob3kk7mtkvjh1qb,html-keyboard-response,baseline,2,1,687,spatial,even,parity,76,NA
4wedfob3kk7mtkvjh1qb,html-keyboard-response,baseline,1,1,638,spatial,odd,parity,65,NA
4wedfob3kk7mtkvjh1qb,html-keyboard-response,baseline,4,1,1117,spatial,even,parity,76,NA
4wedfob3kk7mtkvjh1qb,html-keyboard-response,baseline,8,1,1400,spatial,even,parity,76,NA
4wedfob3kk7mtkvjh1qb,html-keyboard-response,baseline,7,1,622,spatial,odd,parity,65,NA
4wedfob3kk7mtkvjh1qb,html-keyboard-response,baseline,9,1,1229,spatial,odd,parity,65,NA
4wedfob3kk7mtkvjh1qb,html-keyboard-response,baseline,3,1,561,spatial,odd,parity,65,NA
4wedfob3kk7mtkvjh1qb,html-keyboard-response,baseline,1,1,485,spatial,odd,parity,65,NA
4wedfob3kk7mtkvjh1qb,html-keyboard-response,baseline,8,1,563,spatial,even,parity,76,NA
4wedfob3kk7mtkvjh1qb,html-keyboard-response,baseline,7,1,597,spatial,odd,parity,65,NA
4wedfob3kk7mtkvjh1qb,html-keyboard-response,baseline,6,1,574,spatial,even,parity,76,NA
4wedfob3kk7mtkvjh1qb,html-keyboard-response,baseline,2,1,1005,spatial,even,parity,76,NA
4wedfob3kk7mtkvjh1qb,html-keyboard-response,baseline,4,1,757,spatial,even,parity,76,NA
4wedfob3kk7mtkvjh1qb,html-keyboard-response,baseline,9,1,602,spatial,odd,parity,65,NA
4wedfob3kk7mtkvjh1qb,html-keyboard-response,baseline,3,1,957,spatial,odd,parity,65,NA
4wedfob3kk7mtkvjh1qb,html-keyboard-response,baseline,2,1,706,spatial,even,parity,76,NA
4wedfob3kk7mtkvjh1qb,html-keyboard-response,baseline,7,1,633,spatial,odd,parity,65,NA
4wedfob3kk7mtkvjh1qb,html-keyboard-response,baseline,3,1,603,spatial,odd,parity,65,NA
4wedfob3kk7mtkvjh1qb,html-keyboard-response,baseline,9,1,573,spatial,odd,parity,65,NA
4wedfob3kk7mtkvjh1qb,html-keyboard-response,baseline,4,1,557,spatial,even,parity,76,NA
4wedfob3kk7mtkvjh1qb,html-keyboard-response,baseline,8,1,1168,spatial,even,parity,76,NA
4wedfob3kk7mtkvjh1qb,html-keyboard-response,baseline,1,1,662,spatial,odd,parity,65,NA
4wedfob3kk7mtkvjh1qb,html-keyboard-response,baseline,6,1,1092,spatial,even,parity,76,NA
4wedfob3kk7mtkvjh1qb,html-keyboard-response,baseline,8,1,655,spatial,even,parity,76,NA
4wedfob3kk7mtkvjh1qb,html-keyboard-response,baseline,2,1,810,spatial,even,parity,76,NA
4wedfob3kk7mtkvjh1qb,html-keyboard-response,baseline,9,1,690,spatial,odd,parity,65,NA
4wedfob3kk7mtkvjh1qb,html-keyboard-response,baseline,7,1,627,spatial,odd,parity,65,NA
4wedfob3kk7mtkvjh1qb,html-keyboard-response,baseline,1,1,608,spatial,odd,parity,65,NA
4wedfob3kk7mtkvjh1qb,html-keyboard-response,baseline,6,1,537,spatial,even,parity,76,NA
4wedfob3kk7mtkvjh1qb,html-keyboard-response,baseline,4,1,651,spatial,even,parity,76,NA
4wedfob3kk7mtkvjh1qb,html-keyboard-response,baseline,3,1,574,spatial,odd,parity,65,NA
4wedfob3kk7mtkvjh1qb,html-keyboard-response,baseline,4,1,451,spatial,even,parity,76,NA
4wedfob3kk7mtkvjh1qb,html-keyboard-response,baseline,7,1,659,spatial,odd,parity,65,NA
4wedfob3kk7mtkvjh1qb,html-keyboard-response,baseline,2,1,643,spatial,even,parity,76,NA
4wedfob3kk7mtkvjh1qb,html-keyboard-response,baseline,6,1,882,spatial,even,parity,76,NA
4wedfob3kk7mtkvjh1qb,html-keyboard-response,baseline,1,1,593,spatial,odd,parity,65,NA
4wedfob3kk7mtkvjh1qb,html-keyboard-response,baseline,8,1,521,spatial,even,parity,76,NA
4wedfob3kk7mtkvjh1qb,html-keyboard-response,baseline,3,1,669,spatial,odd,parity,65,NA
4wedfob3kk7mtkvjh1qb,html-keyboard-response,baseline,9,0,638,spatial,odd,parity,76,NA
4wedfob3kk7mtkvjh1qb,html-keyboard-response,baseline,3,1,1695,spatial,odd,parity,65,NA
4wedfob3kk7mtkvjh1qb,html-keyboard-response,baseline,8,1,791,spatial,even,parity,76,NA
4wedfob3kk7mtkvjh1qb,html-keyboard-response,baseline,4,1,814,spatial,even,parity,76,NA
4wedfob3kk7mtkvjh1qb,html-keyboard-response,baseline,7,1,577,spatial,odd,parity,65,NA
4wedfob3kk7mtkvjh1qb,html-keyboard-response,baseline,6,1,614,spatial,even,parity,76,NA
4wedfob3kk7mtkvjh1qb,html-keyboard-response,baseline,2,1,607,spatial,even,parity,76,NA
4wedfob3kk7mtkvjh1qb,html-keyboard-response,baseline,1,1,539,spatial,odd,parity,65,NA
4wedfob3kk7mtkvjh1qb,html-keyboard-response,baseline,9,1,755,spatial,odd,parity,65,NA
4wedfob3kk7mtkvjh1qb,html-keyboard-response,baseline,9,1,471,spatial,odd,parity,65,NA
4wedfob3kk7mtkvjh1qb,html-keyboard-response,baseline,1,0,884,spatial,odd,parity,76,NA
4wedfob3kk7mtkvjh1qb,html-keyboard-response,baseline,2,1,1171,spatial,even,parity,76,NA
4wedfob3kk7mtkvjh1qb,html-keyboard-response,baseline,3,1,697,spatial,odd,parity,65,NA
4wedfob3kk7mtkvjh1qb,html-keyboard-response,baseline,6,1,855,spatial,even,parity,76,NA
4wedfob3kk7mtkvjh1qb,html-keyboard-response,baseline,4,1,670,spatial,even,parity,76,NA
4wedfob3kk7mtkvjh1qb,html-keyboard-response,baseline,7,1,733,spatial,odd,parity,65,NA
4wedfob3kk7mtkvjh1qb,html-keyboard-response,baseline,8,1,1095,spatial,even,parity,76,NA
4wedfob3kk7mtkvjh1qb,html-keyboard-response,baseline,6,1,763,spatial,even,parity,76,NA
4wedfob3kk7mtkvjh1qb,html-keyboard-response,baseline,4,1,527,spatial,even,parity,76,NA
4wedfob3kk7mtkvjh1qb,html-keyboard-response,baseline,1,1,1092,spatial,odd,parity,65,NA
4wedfob3kk7mtkvjh1qb,html-keyboard-response,baseline,9,1,1183,spatial,odd,parity,65,NA
4wedfob3kk7mtkvjh1qb,html-keyboard-response,baseline,7,1,613,spatial,odd,parity,65,NA
4wedfob3kk7mtkvjh1qb,html-keyboard-response,baseline,8,1,645,spatial,even,parity,76,NA
4wedfob3kk7mtkvjh1qb,html-keyboard-response,baseline,3,1,713,spatial,odd,parity,65,NA
4wedfob3kk7mtkvjh1qb,html-keyboard-response,baseline,2,1,951,spatial,even,parity,76,NA
4wedfob3kk7mtkvjh1qb,html-keyboard-response,baseline,3,1,671,spatial,odd,parity,65,NA
4wedfob3kk7mtkvjh1qb,html-keyboard-response,baseline,6,1,612,spatial,even,parity,76,NA
4wedfob3kk7mtkvjh1qb,html-keyboard-response,baseline,2,1,575,spatial,even,parity,76,NA
4wedfob3kk7mtkvjh1qb,html-keyboard-response,baseline,8,1,510,spatial,even,parity,76,NA
4wedfob3kk7mtkvjh1qb,html-keyboard-response,baseline,4,1,431,spatial,even,parity,76,NA
4wedfob3kk7mtkvjh1qb,html-keyboard-response,baseline,9,0,437,spatial,odd,parity,76,NA
4wedfob3kk7mtkvjh1qb,html-keyboard-response,baseline,1,1,706,spatial,odd,parity,65,NA
4wedfob3kk7mtkvjh1qb,html-keyboard-response,baseline,7,1,606,spatial,odd,parity,65,NA
4wedfob3kk7mtkvjh1qb,html-keyboard-response,baseline,6,1,730,spatial,even,parity,76,NA
4wedfob3kk7mtkvjh1qb,html-keyboard-response,baseline,4,1,1003,spatial,even,parity,76,NA
4wedfob3kk7mtkvjh1qb,html-keyboard-response,baseline,7,1,582,spatial,odd,parity,65,NA
4wedfob3kk7mtkvjh1qb,html-keyboard-response,baseline,9,1,549,spatial,odd,parity,65,NA
4wedfob3kk7mtkvjh1qb,html-keyboard-response,baseline,2,1,608,spatial,even,parity,76,NA
4wedfob3kk7mtkvjh1qb,html-keyboard-response,baseline,3,1,579,spatial,odd,parity,65,NA
4wedfob3kk7mtkvjh1qb,html-keyboard-response,baseline,1,1,577,spatial,odd,parity,65,NA
4wedfob3kk7mtkvjh1qb,html-keyboard-response,baseline,8,1,602,spatial,even,parity,76,NA
4wedfob3kk7mtkvjh1qb,html-keyboard-response,baseline,6,1,827,spatial,even,parity,76,NA
4wedfob3kk7mtkvjh1qb,html-keyboard-response,baseline,1,1,583,spatial,odd,parity,65,NA
4wedfob3kk7mtkvjh1qb,html-keyboard-response,baseline,8,1,1095,spatial,even,parity,76,NA
4wedfob3kk7mtkvjh1qb,html-keyboard-response,baseline,7,1,655,spatial,odd,parity,65,NA
4wedfob3kk7mtkvjh1qb,html-keyboard-response,baseline,4,1,922,spatial,even,parity,76,NA
4wedfob3kk7mtkvjh1qb,html-keyboard-response,baseline,2,1,841,spatial,even,parity,76,NA
4wedfob3kk7mtkvjh1qb,html-keyboard-response,baseline,3,1,626,spatial,odd,parity,65,NA
4wedfob3kk7mtkvjh1qb,html-keyboard-response,baseline,9,1,573,spatial,odd,parity,65,NA
4wedfob3kk7mtkvjh1qb,html-keyboard-response,baseline,6,1,747,spatial,even,parity,76,NA
4wedfob3kk7mtkvjh1qb,html-keyboard-response,baseline,4,1,1780,spatial,even,parity,76,NA
4wedfob3kk7mtkvjh1qb,html-keyboard-response,baseline,1,1,634,spatial,odd,parity,65,NA
4wedfob3kk7mtkvjh1qb,html-keyboard-response,baseline,3,1,1122,spatial,odd,parity,65,NA
4wedfob3kk7mtkvjh1qb,html-keyboard-response,baseline,7,1,501,spatial,odd,parity,65,NA
4wedfob3kk7mtkvjh1qb,html-keyboard-response,baseline,9,1,503,spatial,odd,parity,65,NA
4wedfob3kk7mtkvjh1qb,html-keyboard-response,baseline,8,1,469,spatial,even,parity,76,NA
4wedfob3kk7mtkvjh1qb,html-keyboard-response,baseline,2,1,604,spatial,even,parity,76,NA
4wedfob3kk7mtkvjh1qb,html-keyboard-response,baseline,8,1,620,spatial,even,parity,76,NA
4wedfob3kk7mtkvjh1qb,html-keyboard-response,baseline,6,1,596,spatial,even,parity,76,NA
4wedfob3kk7mtkvjh1qb,html-keyboard-response,baseline,1,1,520,spatial,odd,parity,65,NA
4wedfob3kk7mtkvjh1qb,html-keyboard-response,baseline,3,1,518,spatial,odd,parity,65,NA
4wedfob3kk7mtkvjh1qb,html-keyboard-response,baseline,4,1,669,spatial,even,parity,76,NA
4wedfob3kk7mtkvjh1qb,html-keyboard-response,baseline,9,1,619,spatial,odd,parity,65,NA
4wedfob3kk7mtkvjh1qb,html-keyboard-response,baseline,7,1,486,spatial,odd,parity,65,NA
4wedfob3kk7mtkvjh1qb,html-keyboard-response,baseline,2,1,583,spatial,even,parity,76,NA
4wedfob3kk7mtkvjh1qb,html-keyboard-response,baseline,2,1,438,spatial,even,parity,76,NA
4wedfob3kk7mtkvjh1qb,html-keyboard-response,baseline,3,1,647,spatial,odd,parity,65,NA
4wedfob3kk7mtkvjh1qb,html-keyboard-response,baseline,1,1,612,spatial,odd,parity,65,NA
4wedfob3kk7mtkvjh1qb,html-keyboard-response,baseline,8,1,636,spatial,even,parity,76,NA
4wedfob3kk7mtkvjh1qb,html-keyboard-response,baseline,4,1,501,spatial,even,parity,76,NA
4wedfob3kk7mtkvjh1qb,html-keyboard-response,baseline,6,1,577,spatial,even,parity,76,NA
4wedfob3kk7mtkvjh1qb,html-keyboard-response,baseline,7,1,602,spatial,odd,parity,65,NA
4wedfob3kk7mtkvjh1qb,html-keyboard-response,baseline,9,1,550,spatial,odd,parity,65,NA
4wedfob3kk7mtkvjh1qb,html-keyboard-response,baseline,6,1,624,spatial,even,parity,65,NA
4wedfob3kk7mtkvjh1qb,html-keyboard-response,baseline,9,1,607,spatial,odd,parity,76,NA
4wedfob3kk7mtkvjh1qb,html-keyboard-response,baseline,7,1,598,spatial,odd,parity,76,NA
4wedfob3kk7mtkvjh1qb,html-keyboard-response,baseline,3,1,499,spatial,odd,parity,76,NA
4wedfob3kk7mtkvjh1qb,html-keyboard-response,baseline,8,1,460,spatial,even,parity,65,NA
4wedfob3kk7mtkvjh1qb,html-keyboard-response,baseline,1,1,643,spatial,odd,parity,76,NA
4wedfob3kk7mtkvjh1qb,html-keyboard-response,baseline,4,1,567,spatial,even,parity,65,NA
4wedfob3kk7mtkvjh1qb,html-keyboard-response,baseline,2,1,674,spatial,even,parity,65,NA
4wedfob3kk7mtkvjh1qb,html-keyboard-response,baseline,3,1,566,spatial,odd,parity,76,NA
4wedfob3kk7mtkvjh1qb,html-keyboard-response,baseline,8,1,611,spatial,even,parity,65,NA
4wedfob3kk7mtkvjh1qb,html-keyboard-response,baseline,7,1,547,spatial,odd,parity,76,NA
4wedfob3kk7mtkvjh1qb,html-keyboard-response,baseline,2,1,555,spatial,even,parity,65,NA
4wedfob3kk7mtkvjh1qb,html-keyboard-response,baseline,6,1,778,spatial,even,parity,65,NA
4wedfob3kk7mtkvjh1qb,html-keyboard-response,baseline,1,1,501,spatial,odd,parity,76,NA
4wedfob3kk7mtkvjh1qb,html-keyboard-response,baseline,9,1,614,spatial,odd,parity,76,NA
4wedfob3kk7mtkvjh1qb,html-keyboard-response,baseline,4,1,583,spatial,even,parity,65,NA
4wedfob3kk7mtkvjh1qb,html-keyboard-response,baseline,8,1,511,spatial,even,parity,65,NA
4wedfob3kk7mtkvjh1qb,html-keyboard-response,baseline,3,1,569,spatial,odd,parity,76,NA
4wedfob3kk7mtkvjh1qb,html-keyboard-response,baseline,6,1,603,spatial,even,parity,65,NA
4wedfob3kk7mtkvjh1qb,html-keyboard-response,baseline,2,1,839,spatial,even,parity,65,NA
4wedfob3kk7mtkvjh1qb,html-keyboard-response,baseline,1,1,579,spatial,odd,parity,76,NA
4wedfob3kk7mtkvjh1qb,html-keyboard-response,baseline,4,1,703,spatial,even,parity,65,NA
4wedfob3kk7mtkvjh1qb,html-keyboard-response,baseline,9,1,645,spatial,odd,parity,76,NA
4wedfob3kk7mtkvjh1qb,html-keyboard-response,baseline,7,1,995,spatial,odd,parity,76,NA
4wedfob3kk7mtkvjh1qb,html-keyboard-response,baseline,1,1,1079,spatial,odd,parity,76,NA
4wedfob3kk7mtkvjh1qb,html-keyboard-response,baseline,7,1,603,spatial,odd,parity,76,NA
4wedfob3kk7mtkvjh1qb,html-keyboard-response,baseline,6,1,552,spatial,even,parity,65,NA
4wedfob3kk7mtkvjh1qb,html-keyboard-response,baseline,4,1,790,spatial,even,parity,65,NA
4wedfob3kk7mtkvjh1qb,html-keyboard-response,baseline,9,1,514,spatial,odd,parity,76,NA
4wedfob3kk7mtkvjh1qb,html-keyboard-response,baseline,3,1,511,spatial,odd,parity,76,NA
4wedfob3kk7mtkvjh1qb,html-keyboard-response,baseline,2,1,774,spatial,even,parity,65,NA
4wedfob3kk7mtkvjh1qb,html-keyboard-response,baseline,8,1,621,spatial,even,parity,65,NA
4wedfob3kk7mtkvjh1qb,html-keyboard-response,baseline,6,1,907,spatial,even,parity,65,NA
4wedfob3kk7mtkvjh1qb,html-keyboard-response,baseline,7,1,602,spatial,odd,parity,76,NA
4wedfob3kk7mtkvjh1qb,html-keyboard-response,baseline,3,1,814,spatial,odd,parity,76,NA
4wedfob3kk7mtkvjh1qb,html-keyboard-response,baseline,1,1,483,spatial,odd,parity,76,NA
4wedfob3kk7mtkvjh1qb,html-keyboard-response,baseline,2,1,633,spatial,even,parity,65,NA
4wedfob3kk7mtkvjh1qb,html-keyboard-response,baseline,9,1,756,spatial,odd,parity,76,NA
4wedfob3kk7mtkvjh1qb,html-keyboard-response,baseline,4,1,639,spatial,even,parity,65,NA
4wedfob3kk7mtkvjh1qb,html-keyboard-response,baseline,8,1,594,spatial,even,parity,65,NA
4wedfob3kk7mtkvjh1qb,html-keyboard-response,baseline,6,1,513,spatial,even,parity,65,NA
4wedfob3kk7mtkvjh1qb,html-keyboard-response,baseline,1,1,522,spatial,odd,parity,76,NA
4wedfob3kk7mtkvjh1qb,html-keyboard-response,baseline,4,1,495,spatial,even,parity,65,NA
4wedfob3kk7mtkvjh1qb,html-keyboard-response,baseline,8,1,558,spatial,even,parity,65,NA
4wedfob3kk7mtkvjh1qb,html-keyboard-response,baseline,2,1,512,spatial,even,parity,65,NA
4wedfob3kk7mtkvjh1qb,html-keyboard-response,baseline,9,1,614,spatial,odd,parity,76,NA
4wedfob3kk7mtkvjh1qb,html-keyboard-response,baseline,7,1,648,spatial,odd,parity,76,NA
4wedfob3kk7mtkvjh1qb,html-keyboard-response,baseline,3,1,963,spatial,odd,parity,76,NA
4wedfob3kk7mtkvjh1qb,html-keyboard-response,baseline,6,1,691,spatial,even,parity,65,NA
4wedfob3kk7mtkvjh1qb,html-keyboard-response,baseline,4,1,486,spatial,even,parity,65,NA
4wedfob3kk7mtkvjh1qb,html-keyboard-response,baseline,7,1,509,spatial,odd,parity,76,NA
4wedfob3kk7mtkvjh1qb,html-keyboard-response,baseline,2,1,541,spatial,even,parity,65,NA
4wedfob3kk7mtkvjh1qb,html-keyboard-response,baseline,8,1,519,spatial,even,parity,65,NA
4wedfob3kk7mtkvjh1qb,html-keyboard-response,baseline,9,1,516,spatial,odd,parity,76,NA
4wedfob3kk7mtkvjh1qb,html-keyboard-response,baseline,1,1,570,spatial,odd,parity,76,NA
4wedfob3kk7mtkvjh1qb,html-keyboard-response,baseline,3,1,686,spatial,odd,parity,76,NA
4wedfob3kk7mtkvjh1qb,html-keyboard-response,baseline,7,0,523,spatial,odd,parity,65,NA
4wedfob3kk7mtkvjh1qb,html-keyboard-response,baseline,2,1,636,spatial,even,parity,65,NA
4wedfob3kk7mtkvjh1qb,html-keyboard-response,baseline,8,1,446,spatial,even,parity,65,NA
4wedfob3kk7mtkvjh1qb,html-keyboard-response,baseline,1,1,478,spatial,odd,parity,76,NA
4wedfob3kk7mtkvjh1qb,html-keyboard-response,baseline,3,1,642,spatial,odd,parity,76,NA
4wedfob3kk7mtkvjh1qb,html-keyboard-response,baseline,9,1,540,spatial,odd,parity,76,NA
4wedfob3kk7mtkvjh1qb,html-keyboard-response,baseline,4,1,553,spatial,even,parity,65,NA
4wedfob3kk7mtkvjh1qb,html-keyboard-response,baseline,6,1,991,spatial,even,parity,65,NA
4wedfob3kk7mtkvjh1qb,html-keyboard-response,baseline,9,1,518,spatial,odd,parity,76,NA
4wedfob3kk7mtkvjh1qb,html-keyboard-response,baseline,4,1,495,spatial,even,parity,65,NA
4wedfob3kk7mtkvjh1qb,html-keyboard-response,baseline,1,1,476,spatial,odd,parity,76,NA
4wedfob3kk7mtkvjh1qb,html-keyboard-response,baseline,2,1,635,spatial,even,parity,65,NA
4wedfob3kk7mtkvjh1qb,html-keyboard-response,baseline,7,1,704,spatial,odd,parity,76,NA
4wedfob3kk7mtkvjh1qb,html-keyboard-response,baseline,8,1,649,spatial,even,parity,65,NA
4wedfob3kk7mtkvjh1qb,html-keyboard-response,baseline,3,1,803,spatial,odd,parity,76,NA
4wedfob3kk7mtkvjh1qb,html-keyboard-response,baseline,6,1,951,spatial,even,parity,65,NA
4wedfob3kk7mtkvjh1qb,html-keyboard-response,baseline,3,1,684,spatial,odd,parity,76,NA
4wedfob3kk7mtkvjh1qb,html-keyboard-response,baseline,7,1,591,spatial,odd,parity,76,NA
4wedfob3kk7mtkvjh1qb,html-keyboard-response,baseline,9,1,759,spatial,odd,parity,76,NA
4wedfob3kk7mtkvjh1qb,html-keyboard-response,baseline,8,1,514,spatial,even,parity,65,NA
4wedfob3kk7mtkvjh1qb,html-keyboard-response,baseline,6,1,599,spatial,even,parity,65,NA
4wedfob3kk7mtkvjh1qb,html-keyboard-response,baseline,1,1,569,spatial,odd,parity,76,NA
4wedfob3kk7mtkvjh1qb,html-keyboard-response,baseline,4,1,491,spatial,even,parity,65,NA
4wedfob3kk7mtkvjh1qb,html-keyboard-response,baseline,2,1,935,spatial,even,parity,65,NA
4wedfob3kk7mtkvjh1qb,html-keyboard-response,baseline,6,1,1063,spatial,even,parity,65,NA
4wedfob3kk7mtkvjh1qb,html-keyboard-response,baseline,4,1,441,spatial,even,parity,65,NA
4wedfob3kk7mtkvjh1qb,html-keyboard-response,baseline,3,1,588,spatial,odd,parity,76,NA
4wedfob3kk7mtkvjh1qb,html-keyboard-response,baseline,2,1,686,spatial,even,parity,65,NA
4wedfob3kk7mtkvjh1qb,html-keyboard-response,baseline,1,1,483,spatial,odd,parity,76,NA
4wedfob3kk7mtkvjh1qb,html-keyboard-response,baseline,7,1,707,spatial,odd,parity,76,NA
4wedfob3kk7mtkvjh1qb,html-keyboard-response,baseline,9,1,603,spatial,odd,parity,76,NA
4wedfob3kk7mtkvjh1qb,html-keyboard-response,baseline,8,1,607,spatial,even,parity,65,NA
4wedfob3kk7mtkvjh1qb,html-keyboard-response,baseline,7,1,662,spatial,odd,parity,76,NA
4wedfob3kk7mtkvjh1qb,html-keyboard-response,baseline,4,1,699,spatial,even,parity,65,NA
4wedfob3kk7mtkvjh1qb,html-keyboard-response,baseline,3,1,1252,spatial,odd,parity,76,NA
4wedfob3kk7mtkvjh1qb,html-keyboard-response,baseline,8,1,660,spatial,even,parity,65,NA
4wedfob3kk7mtkvjh1qb,html-keyboard-response,baseline,9,1,706,spatial,odd,parity,76,NA
4wedfob3kk7mtkvjh1qb,html-keyboard-response,baseline,1,0,822,spatial,odd,parity,65,NA
4wedfob3kk7mtkvjh1qb,html-keyboard-response,baseline,2,1,935,spatial,even,parity,65,NA
4wedfob3kk7mtkvjh1qb,html-keyboard-response,baseline,6,1,835,spatial,even,parity,65,NA
4wedfob3kk7mtkvjh1qb,html-keyboard-response,baseline,1,1,1103,spatial,odd,parity,76,NA
4wedfob3kk7mtkvjh1qb,html-keyboard-response,baseline,2,1,519,spatial,even,parity,65,NA
4wedfob3kk7mtkvjh1qb,html-keyboard-response,baseline,6,0,498,spatial,even,parity,76,NA
4wedfob3kk7mtkvjh1qb,html-keyboard-response,baseline,8,1,518,spatial,even,parity,65,NA
4wedfob3kk7mtkvjh1qb,html-keyboard-response,baseline,7,1,676,spatial,odd,parity,76,NA
4wedfob3kk7mtkvjh1qb,html-keyboard-response,baseline,3,1,787,spatial,odd,parity,76,NA
4wedfob3kk7mtkvjh1qb,html-keyboard-response,baseline,4,1,602,spatial,even,parity,65,NA
4wedfob3kk7mtkvjh1qb,html-keyboard-response,baseline,9,1,590,spatial,odd,parity,76,NA
4wedfob3kk7mtkvjh1qb,html-keyboard-response,baseline,3,0,913,spatial,odd,parity,65,NA
4wedfob3kk7mtkvjh1qb,html-keyboard-response,baseline,2,1,859,spatial,even,parity,65,NA
4wedfob3kk7mtkvjh1qb,html-keyboard-response,baseline,1,1,619,spatial,odd,parity,76,NA
4wedfob3kk7mtkvjh1qb,html-keyboard-response,baseline,4,1,586,spatial,even,parity,65,NA
4wedfob3kk7mtkvjh1qb,html-keyboard-response,baseline,9,1,627,spatial,odd,parity,76,NA
4wedfob3kk7mtkvjh1qb,html-keyboard-response,baseline,6,1,891,spatial,even,parity,65,NA
4wedfob3kk7mtkvjh1qb,html-keyboard-response,baseline,7,1,646,spatial,odd,parity,76,NA
4wedfob3kk7mtkvjh1qb,html-keyboard-response,baseline,8,1,692,spatial,even,parity,65,NA
4wedfob3kk7mtkvjh1qb,html-keyboard-response,baseline,4,1,911,spatial,even,parity,65,NA
4wedfob3kk7mtkvjh1qb,html-keyboard-response,baseline,1,1,714,spatial,odd,parity,76,NA
4wedfob3kk7mtkvjh1qb,html-keyboard-response,baseline,2,1,542,spatial,even,parity,65,NA
4wedfob3kk7mtkvjh1qb,html-keyboard-response,baseline,8,1,933,spatial,even,parity,65,NA
4wedfob3kk7mtkvjh1qb,html-keyboard-response,baseline,3,1,579,spatial,odd,parity,76,NA
4wedfob3kk7mtkvjh1qb,html-keyboard-response,baseline,7,1,610,spatial,odd,parity,76,NA
4wedfob3kk7mtkvjh1qb,html-keyboard-response,baseline,6,1,564,spatial,even,parity,65,NA
4wedfob3kk7mtkvjh1qb,html-keyboard-response,baseline,9,1,1354,spatial,odd,parity,76,NA
4wedfob3kk7mtkvjh1qb,html-keyboard-response,baseline,2,1,391,spatial,even,parity,65,NA
4wedfob3kk7mtkvjh1qb,html-keyboard-response,baseline,1,1,699,spatial,odd,parity,76,NA
4wedfob3kk7mtkvjh1qb,html-keyboard-response,baseline,4,1,690,spatial,even,parity,65,NA
4wedfob3kk7mtkvjh1qb,html-keyboard-response,baseline,9,1,589,spatial,odd,parity,76,NA
4wedfob3kk7mtkvjh1qb,html-keyboard-response,baseline,8,1,701,spatial,even,parity,65,NA
4wedfob3kk7mtkvjh1qb,html-keyboard-response,baseline,6,1,626,spatial,even,parity,65,NA
4wedfob3kk7mtkvjh1qb,html-keyboard-response,baseline,7,1,570,spatial,odd,parity,76,NA
4wedfob3kk7mtkvjh1qb,html-keyboard-response,baseline,3,1,1250,spatial,odd,parity,76,NA
4wedfob3kk7mtkvjh1qb,corsi,wm-span-practice,NA,1,NA,spatial,NA,wm-span,NA,NA
4wedfob3kk7mtkvjh1qb,corsi,wm-span,NA,1,NA,spatial,NA,wm-span,NA,NA
4wedfob3kk7mtkvjh1qb,corsi,wm-span,NA,1,NA,spatial,NA,wm-span,NA,NA
4wedfob3kk7mtkvjh1qb,corsi,wm-span,NA,1,NA,spatial,NA,wm-span,NA,NA
4wedfob3kk7mtkvjh1qb,corsi,wm-span,NA,1,NA,spatial,NA,wm-span,NA,NA
4wedfob3kk7mtkvjh1qb,corsi,wm-span,NA,1,NA,spatial,NA,wm-span,NA,NA
4wedfob3kk7mtkvjh1qb,corsi,wm-span,NA,1,NA,spatial,NA,wm-span,NA,NA
4wedfob3kk7mtkvjh1qb,corsi,wm-span,NA,1,NA,spatial,NA,wm-span,NA,NA
4wedfob3kk7mtkvjh1qb,corsi,wm-span,NA,1,NA,spatial,NA,wm-span,NA,NA
4wedfob3kk7mtkvjh1qb,corsi,wm-span,NA,1,NA,spatial,NA,wm-span,NA,NA
4wedfob3kk7mtkvjh1qb,corsi,wm-span,NA,1,NA,spatial,NA,wm-span,NA,NA
4wedfob3kk7mtkvjh1qb,corsi,wm-span,NA,1,NA,spatial,NA,wm-span,NA,NA
4wedfob3kk7mtkvjh1qb,corsi,wm-span,NA,1,NA,spatial,NA,wm-span,NA,NA
4wedfob3kk7mtkvjh1qb,corsi,wm-span,NA,1,NA,spatial,NA,wm-span,NA,NA
4wedfob3kk7mtkvjh1qb,corsi,wm-span,NA,0,NA,spatial,NA,wm-span,NA,NA
4wedfob3kk7mtkvjh1qb,corsi,wm-span,NA,1,NA,spatial,NA,wm-span,NA,NA
4wedfob3kk7mtkvjh1qb,corsi,wm-span,NA,0,NA,spatial,NA,wm-span,NA,NA
4wedfob3kk7mtkvjh1qb,corsi,wm-span,NA,0,NA,spatial,NA,wm-span,NA,NA
4wedfob3kk7mtkvjh1qb,corsi,wm-span,NA,0,NA,spatial,NA,wm-span,NA,NA
4wedfob3kk7mtkvjh1qb,call-function,calculate-span,NA,NA,NA,spatial,NA,NA,NA,7
4wedfob3kk7mtkvjh1qb,html-keyboard-response,load,2,1,1652,spatial,even,parity,76,NA
4wedfob3kk7mtkvjh1qb,html-keyboard-response,load,3,1,540,spatial,odd,parity,65,NA
4wedfob3kk7mtkvjh1qb,html-keyboard-response,load,9,1,1571,spatial,odd,parity,65,NA
4wedfob3kk7mtkvjh1qb,html-keyboard-response,load,7,1,658,spatial,odd,parity,65,NA
4wedfob3kk7mtkvjh1qb,html-keyboard-response,load,8,1,751,spatial,even,parity,76,NA
4wedfob3kk7mtkvjh1qb,html-keyboard-response,load,4,1,764,spatial,even,parity,76,NA
4wedfob3kk7mtkvjh1qb,html-keyboard-response,load,1,1,926,spatial,odd,parity,65,NA
4wedfob3kk7mtkvjh1qb,html-keyboard-response,load,6,1,497,spatial,even,parity,76,NA
4wedfob3kk7mtkvjh1qb,html-keyboard-response,load,8,1,949,spatial,even,parity,76,NA
4wedfob3kk7mtkvjh1qb,html-keyboard-response,load,1,1,518,spatial,odd,parity,65,NA
4wedfob3kk7mtkvjh1qb,html-keyboard-response,load,2,1,672,spatial,even,parity,76,NA
4wedfob3kk7mtkvjh1qb,html-keyboard-response,load,9,1,985,spatial,odd,parity,65,NA
4wedfob3kk7mtkvjh1qb,html-keyboard-response,load,7,1,3088,spatial,odd,parity,65,NA
4wedfob3kk7mtkvjh1qb,html-keyboard-response,load,3,1,545,spatial,odd,parity,65,NA
4wedfob3kk7mtkvjh1qb,html-keyboard-response,load,6,1,543,spatial,even,parity,76,NA
4wedfob3kk7mtkvjh1qb,html-keyboard-response,load,4,1,2551,spatial,even,parity,76,NA
4wedfob3kk7mtkvjh1qb,corsi,load,NA,1,NA,spatial,NA,NA,NA,NA
4wedfob3kk7mtkvjh1qb,html-keyboard-response,load,7,1,2152,spatial,odd,parity,65,NA
4wedfob3kk7mtkvjh1qb,html-keyboard-response,load,3,1,585,spatial,odd,parity,65,NA
4wedfob3kk7mtkvjh1qb,html-keyboard-response,load,8,1,485,spatial,even,parity,76,NA
4wedfob3kk7mtkvjh1qb,html-keyboard-response,load,4,1,1371,spatial,even,parity,76,NA
4wedfob3kk7mtkvjh1qb,html-keyboard-response,load,1,1,507,spatial,odd,parity,65,NA
4wedfob3kk7mtkvjh1qb,html-keyboard-response,load,6,1,554,spatial,even,parity,76,NA
4wedfob3kk7mtkvjh1qb,html-keyboard-response,load,9,1,741,spatial,odd,parity,65,NA
4wedfob3kk7mtkvjh1qb,html-keyboard-response,load,2,1,570,spatial,even,parity,76,NA
4wedfob3kk7mtkvjh1qb,html-keyboard-response,load,2,1,678,spatial,even,parity,76,NA
4wedfob3kk7mtkvjh1qb,html-keyboard-response,load,1,1,524,spatial,odd,parity,65,NA
4wedfob3kk7mtkvjh1qb,html-keyboard-response,load,8,1,740,spatial,even,parity,76,NA
4wedfob3kk7mtkvjh1qb,html-keyboard-response,load,4,1,825,spatial,even,parity,76,NA
4wedfob3kk7mtkvjh1qb,html-keyboard-response,load,3,1,984,spatial,odd,parity,65,NA
4wedfob3kk7mtkvjh1qb,html-keyboard-response,load,9,1,1018,spatial,odd,parity,65,NA
4wedfob3kk7mtkvjh1qb,html-keyboard-response,load,7,1,573,spatial,odd,parity,65,NA
4wedfob3kk7mtkvjh1qb,html-keyboard-response,load,6,1,574,spatial,even,parity,76,NA
4wedfob3kk7mtkvjh1qb,corsi,load,NA,1,NA,spatial,NA,NA,NA,NA
4wedfob3kk7mtkvjh1qb,html-keyboard-response,load,9,1,1409,spatial,odd,parity,65,NA
4wedfob3kk7mtkvjh1qb,html-keyboard-response,load,6,1,487,spatial,even,parity,76,NA
4wedfob3kk7mtkvjh1qb,html-keyboard-response,load,2,1,660,spatial,even,parity,76,NA
4wedfob3kk7mtkvjh1qb,html-keyboard-response,load,4,1,1182,spatial,even,parity,76,NA
4wedfob3kk7mtkvjh1qb,html-keyboard-response,load,8,1,2280,spatial,even,parity,76,NA
4wedfob3kk7mtkvjh1qb,html-keyboard-response,load,3,1,586,spatial,odd,parity,65,NA
4wedfob3kk7mtkvjh1qb,html-keyboard-response,load,7,1,1256,spatial,odd,parity,65,NA
4wedfob3kk7mtkvjh1qb,html-keyboard-response,load,1,0,823,spatial,odd,parity,76,NA
4wedfob3kk7mtkvjh1qb,html-keyboard-response,load,7,1,545,spatial,odd,parity,65,NA
4wedfob3kk7mtkvjh1qb,html-keyboard-response,load,4,1,642,spatial,even,parity,76,NA
4wedfob3kk7mtkvjh1qb,html-keyboard-response,load,2,1,560,spatial,even,parity,76,NA
4wedfob3kk7mtkvjh1qb,html-keyboard-response,load,1,1,465,spatial,odd,parity,65,NA
4wedfob3kk7mtkvjh1qb,html-keyboard-response,load,9,1,564,spatial,odd,parity,65,NA
4wedfob3kk7mtkvjh1qb,html-keyboard-response,load,3,1,441,spatial,odd,parity,65,NA
4wedfob3kk7mtkvjh1qb,html-keyboard-response,load,8,1,566,spatial,even,parity,76,NA
4wedfob3kk7mtkvjh1qb,html-keyboard-response,load,6,1,520,spatial,even,parity,76,NA
4wedfob3kk7mtkvjh1qb,corsi,load,NA,0,NA,spatial,NA,NA,NA,NA
4wedfob3kk7mtkvjh1qb,html-keyboard-response,load,7,1,1374,spatial,odd,parity,65,NA
4wedfob3kk7mtkvjh1qb,html-keyboard-response,load,8,1,1056,spatial,even,parity,76,NA
4wedfob3kk7mtkvjh1qb,html-keyboard-response,load,6,1,965,spatial,even,parity,76,NA
4wedfob3kk7mtkvjh1qb,html-keyboard-response,load,4,1,866,spatial,even,parity,76,NA
4wedfob3kk7mtkvjh1qb,html-keyboard-response,load,9,0,597,spatial,odd,parity,76,NA
4wedfob3kk7mtkvjh1qb,html-keyboard-response,load,1,1,641,spatial,odd,parity,65,NA
4wedfob3kk7mtkvjh1qb,html-keyboard-response,load,3,1,642,spatial,odd,parity,65,NA
4wedfob3kk7mtkvjh1qb,html-keyboard-response,load,2,1,608,spatial,even,parity,76,NA
4wedfob3kk7mtkvjh1qb,html-keyboard-response,load,6,1,1106,spatial,even,parity,76,NA
4wedfob3kk7mtkvjh1qb,html-keyboard-response,load,9,1,579,spatial,odd,parity,65,NA
4wedfob3kk7mtkvjh1qb,html-keyboard-response,load,2,1,870,spatial,even,parity,76,NA
4wedfob3kk7mtkvjh1qb,html-keyboard-response,load,3,1,1770,spatial,odd,parity,65,NA
4wedfob3kk7mtkvjh1qb,html-keyboard-response,load,4,1,622,spatial,even,parity,76,NA
4wedfob3kk7mtkvjh1qb,html-keyboard-response,load,7,1,842,spatial,odd,parity,65,NA
4wedfob3kk7mtkvjh1qb,html-keyboard-response,load,8,1,519,spatial,even,parity,76,NA
4wedfob3kk7mtkvjh1qb,html-keyboard-response,load,1,1,726,spatial,odd,parity,65,NA
4wedfob3kk7mtkvjh1qb,corsi,load,NA,0,NA,spatial,NA,NA,NA,NA
4wedfob3kk7mtkvjh1qb,html-keyboard-response,load,2,0,3537,spatial,even,parity,65,NA
4wedfob3kk7mtkvjh1qb,html-keyboard-response,load,6,1,1033,spatial,even,parity,76,NA
4wedfob3kk7mtkvjh1qb,html-keyboard-response,load,7,1,558,spatial,odd,parity,65,NA
4wedfob3kk7mtkvjh1qb,html-keyboard-response,load,1,1,560,spatial,odd,parity,65,NA
4wedfob3kk7mtkvjh1qb,html-keyboard-response,load,4,1,1164,spatial,even,parity,76,NA
4wedfob3kk7mtkvjh1qb,html-keyboard-response,load,3,1,649,spatial,odd,parity,65,NA
4wedfob3kk7mtkvjh1qb,html-keyboard-response,load,9,1,713,spatial,odd,parity,65,NA
4wedfob3kk7mtkvjh1qb,html-keyboard-response,load,8,1,499,spatial,even,parity,76,NA
4wedfob3kk7mtkvjh1qb,html-keyboard-response,load,1,1,502,spatial,odd,parity,65,NA
4wedfob3kk7mtkvjh1qb,html-keyboard-response,load,7,1,468,spatial,odd,parity,65,NA
4wedfob3kk7mtkvjh1qb,html-keyboard-response,load,8,1,608,spatial,even,parity,76,NA
4wedfob3kk7mtkvjh1qb,html-keyboard-response,load,6,0,715,spatial,even,parity,65,NA
4wedfob3kk7mtkvjh1qb,html-keyboard-response,load,9,1,533,spatial,odd,parity,65,NA
4wedfob3kk7mtkvjh1qb,html-keyboard-response,load,3,1,932,spatial,odd,parity,65,NA
4wedfob3kk7mtkvjh1qb,html-keyboard-response,load,2,1,549,spatial,even,parity,76,NA
4wedfob3kk7mtkvjh1qb,html-keyboard-response,load,4,1,938,spatial,even,parity,76,NA
4wedfob3kk7mtkvjh1qb,corsi,load,NA,0,NA,spatial,NA,NA,NA,NA
4wedfob3kk7mtkvjh1qb,html-keyboard-response,load,1,1,2241,spatial,odd,parity,65,NA
4wedfob3kk7mtkvjh1qb,html-keyboard-response,load,7,1,629,spatial,odd,parity,65,NA
4wedfob3kk7mtkvjh1qb,html-keyboard-response,load,6,1,563,spatial,even,parity,76,NA
4wedfob3kk7mtkvjh1qb,html-keyboard-response,load,9,1,517,spatial,odd,parity,65,NA
4wedfob3kk7mtkvjh1qb,html-keyboard-response,load,4,1,656,spatial,even,parity,76,NA
4wedfob3kk7mtkvjh1qb,html-keyboard-response,load,2,0,558,spatial,even,parity,65,NA
4wedfob3kk7mtkvjh1qb,html-keyboard-response,load,8,1,655,spatial,even,parity,76,NA
4wedfob3kk7mtkvjh1qb,html-keyboard-response,load,3,1,514,spatial,odd,parity,65,NA
4wedfob3kk7mtkvjh1qb,html-keyboard-response,load,1,1,537,spatial,odd,parity,65,NA
4wedfob3kk7mtkvjh1qb,html-keyboard-response,load,9,0,621,spatial,odd,parity,76,NA
4wedfob3kk7mtkvjh1qb,html-keyboard-response,load,7,1,879,spatial,odd,parity,65,NA
4wedfob3kk7mtkvjh1qb,html-keyboard-response,load,4,1,1144,spatial,even,parity,76,NA
4wedfob3kk7mtkvjh1qb,html-keyboard-response,load,8,1,701,spatial,even,parity,76,NA
4wedfob3kk7mtkvjh1qb,html-keyboard-response,load,3,1,542,spatial,odd,parity,65,NA
4wedfob3kk7mtkvjh1qb,html-keyboard-response,load,6,1,1467,spatial,even,parity,76,NA
4wedfob3kk7mtkvjh1qb,html-keyboard-response,load,2,1,813,spatial,even,parity,76,NA
4wedfob3kk7mtkvjh1qb,corsi,load,NA,0,NA,spatial,NA,NA,NA,NA
4wedfob3kk7mtkvjh1qb,html-keyboard-response,load,9,1,2731,spatial,odd,parity,65,NA
4wedfob3kk7mtkvjh1qb,html-keyboard-response,load,4,1,555,spatial,even,parity,76,NA
4wedfob3kk7mtkvjh1qb,html-keyboard-response,load,7,1,703,spatial,odd,parity,65,NA
4wedfob3kk7mtkvjh1qb,html-keyboard-response,load,3,1,599,spatial,odd,parity,65,NA
4wedfob3kk7mtkvjh1qb,html-keyboard-response,load,1,1,2147,spatial,odd,parity,65,NA
4wedfob3kk7mtkvjh1qb,html-keyboard-response,load,6,1,818,spatial,even,parity,76,NA
4wedfob3kk7mtkvjh1qb,html-keyboard-response,load,2,0,602,spatial,even,parity,65,NA
4wedfob3kk7mtkvjh1qb,html-keyboard-response,load,8,1,652,spatial,even,parity,76,NA
4wedfob3kk7mtkvjh1qb,html-keyboard-response,load,1,0,622,spatial,odd,parity,76,NA
4wedfob3kk7mtkvjh1qb,html-keyboard-response,load,9,1,914,spatial,odd,parity,65,NA
4wedfob3kk7mtkvjh1qb,html-keyboard-response,load,6,1,660,spatial,even,parity,76,NA
4wedfob3kk7mtkvjh1qb,html-keyboard-response,load,8,1,1949,spatial,even,parity,76,NA
4wedfob3kk7mtkvjh1qb,html-keyboard-response,load,2,1,641,spatial,even,parity,76,NA
4wedfob3kk7mtkvjh1qb,html-keyboard-response,load,3,1,1333,spatial,odd,parity,65,NA
4wedfob3kk7mtkvjh1qb,html-keyboard-response,load,4,1,965,spatial,even,parity,76,NA
4wedfob3kk7mtkvjh1qb,html-keyboard-response,load,7,1,603,spatial,odd,parity,65,NA
4wedfob3kk7mtkvjh1qb,corsi,load,NA,0,NA,spatial,NA,NA,NA,NA
4wedfob3kk7mtkvjh1qb,html-keyboard-response,load,7,1,877,spatial,odd,parity,65,NA
4wedfob3kk7mtkvjh1qb,html-keyboard-response,load,9,1,627,spatial,odd,parity,65,NA
4wedfob3kk7mtkvjh1qb,html-keyboard-response,load,2,1,771,spatial,even,parity,76,NA
4wedfob3kk7mtkvjh1qb,html-keyboard-response,load,8,1,1652,spatial,even,parity,76,NA
4wedfob3kk7mtkvjh1qb,html-keyboard-response,load,6,1,473,spatial,even,parity,76,NA
4wedfob3kk7mtkvjh1qb,html-keyboard-response,load,1,1,543,spatial,odd,parity,65,NA
4wedfob3kk7mtkvjh1qb,html-keyboard-response,load,3,1,788,spatial,odd,parity,65,NA
4wedfob3kk7mtkvjh1qb,html-keyboard-response,load,4,1,793,spatial,even,parity,76,NA
4wedfob3kk7mtkvjh1qb,html-keyboard-response,load,7,1,591,spatial,odd,parity,65,NA
4wedfob3kk7mtkvjh1qb,html-keyboard-response,load,9,0,539,spatial,odd,parity,76,NA
4wedfob3kk7mtkvjh1qb,html-keyboard-response,load,3,1,514,spatial,odd,parity,65,NA
4wedfob3kk7mtkvjh1qb,html-keyboard-response,load,8,1,605,spatial,even,parity,76,NA
4wedfob3kk7mtkvjh1qb,html-keyboard-response,load,4,1,713,spatial,even,parity,76,NA
4wedfob3kk7mtkvjh1qb,html-keyboard-response,load,6,1,567,spatial,even,parity,76,NA
4wedfob3kk7mtkvjh1qb,html-keyboard-response,load,2,1,587,spatial,even,parity,76,NA
4wedfob3kk7mtkvjh1qb,html-keyboard-response,load,1,1,582,spatial,odd,parity,65,NA
4wedfob3kk7mtkvjh1qb,corsi,load,NA,0,NA,spatial,NA,NA,NA,NA
4wedfob3kk7mtkvjh1qb,html-keyboard-response,load,4,1,1767,spatial,even,parity,76,NA
4wedfob3kk7mtkvjh1qb,html-keyboard-response,load,7,1,678,spatial,odd,parity,65,NA
4wedfob3kk7mtkvjh1qb,html-keyboard-response,load,1,1,2667,spatial,odd,parity,65,NA
4wedfob3kk7mtkvjh1qb,html-keyboard-response,load,6,1,513,spatial,even,parity,76,NA
4wedfob3kk7mtkvjh1qb,html-keyboard-response,load,9,1,599,spatial,odd,parity,65,NA
4wedfob3kk7mtkvjh1qb,html-keyboard-response,load,8,1,707,spatial,even,parity,76,NA
4wedfob3kk7mtkvjh1qb,html-keyboard-response,load,3,1,470,spatial,odd,parity,65,NA
4wedfob3kk7mtkvjh1qb,html-keyboard-response,load,2,0,496,spatial,even,parity,65,NA
4wedfob3kk7mtkvjh1qb,html-keyboard-response,load,3,1,813,spatial,odd,parity,65,NA
4wedfob3kk7mtkvjh1qb,html-keyboard-response,load,2,1,491,spatial,even,parity,76,NA
4wedfob3kk7mtkvjh1qb,html-keyboard-response,load,4,1,536,spatial,even,parity,76,NA
4wedfob3kk7mtkvjh1qb,html-keyboard-response,load,1,1,599,spatial,odd,parity,65,NA
4wedfob3kk7mtkvjh1qb,html-keyboard-response,load,8,1,488,spatial,even,parity,76,NA
4wedfob3kk7mtkvjh1qb,html-keyboard-response,load,6,1,454,spatial,even,parity,76,NA
4wedfob3kk7mtkvjh1qb,html-keyboard-response,load,7,1,503,spatial,odd,parity,65,NA
4wedfob3kk7mtkvjh1qb,html-keyboard-response,load,9,1,495,spatial,odd,parity,65,NA
4wedfob3kk7mtkvjh1qb,corsi,load,NA,0,NA,spatial,NA,NA,NA,NA
4wedfob3kk7mtkvjh1qb,html-keyboard-response,load,1,1,1842,spatial,odd,parity,65,NA
4wedfob3kk7mtkvjh1qb,html-keyboard-response,load,2,1,827,spatial,even,parity,76,NA
4wedfob3kk7mtkvjh1qb,html-keyboard-response,load,3,1,1065,spatial,odd,parity,65,NA
4wedfob3kk7mtkvjh1qb,html-keyboard-response,load,4,1,665,spatial,even,parity,76,NA
4wedfob3kk7mtkvjh1qb,html-keyboard-response,load,9,1,590,spatial,odd,parity,65,NA
4wedfob3kk7mtkvjh1qb,html-keyboard-response,load,6,1,581,spatial,even,parity,76,NA
4wedfob3kk7mtkvjh1qb,html-keyboard-response,load,7,1,490,spatial,odd,parity,65,NA
4wedfob3kk7mtkvjh1qb,html-keyboard-response,load,8,1,515,spatial,even,parity,76,NA
4wedfob3kk7mtkvjh1qb,html-keyboard-response,load,3,1,587,spatial,odd,parity,65,NA
4wedfob3kk7mtkvjh1qb,html-keyboard-response,load,8,1,499,spatial,even,parity,76,NA
4wedfob3kk7mtkvjh1qb,html-keyboard-response,load,2,0,557,spatial,even,parity,65,NA
4wedfob3kk7mtkvjh1qb,html-keyboard-response,load,4,1,564,spatial,even,parity,76,NA
4wedfob3kk7mtkvjh1qb,html-keyboard-response,load,7,1,518,spatial,odd,parity,65,NA
4wedfob3kk7mtkvjh1qb,html-keyboard-response,load,1,1,504,spatial,odd,parity,65,NA
4wedfob3kk7mtkvjh1qb,html-keyboard-response,load,6,1,451,spatial,even,parity,76,NA
4wedfob3kk7mtkvjh1qb,html-keyboard-response,load,9,1,542,spatial,odd,parity,65,NA
4wedfob3kk7mtkvjh1qb,corsi,load,NA,0,NA,spatial,NA,NA,NA,NA
4wedfob3kk7mtkvjh1qb,html-keyboard-response,load,6,1,3036,spatial,even,parity,76,NA
4wedfob3kk7mtkvjh1qb,html-keyboard-response,load,9,1,577,spatial,odd,parity,65,NA
4wedfob3kk7mtkvjh1qb,html-keyboard-response,load,1,1,2317,spatial,odd,parity,65,NA
4wedfob3kk7mtkvjh1qb,html-keyboard-response,load,8,1,573,spatial,even,parity,76,NA
4wedfob3kk7mtkvjh1qb,html-keyboard-response,load,2,1,1208,spatial,even,parity,76,NA
4wedfob3kk7mtkvjh1qb,html-keyboard-response,load,3,1,461,spatial,odd,parity,65,NA
4wedfob3kk7mtkvjh1qb,html-keyboard-response,load,7,1,886,spatial,odd,parity,65,NA
4wedfob3kk7mtkvjh1qb,html-keyboard-response,load,4,1,918,spatial,even,parity,76,NA
4wedfob3kk7mtkvjh1qb,html-keyboard-response,load,3,1,958,spatial,odd,parity,65,NA
4wedfob3kk7mtkvjh1qb,html-keyboard-response,load,8,1,595,spatial,even,parity,76,NA
4wedfob3kk7mtkvjh1qb,html-keyboard-response,load,9,1,376,spatial,odd,parity,65,NA
4wedfob3kk7mtkvjh1qb,html-keyboard-response,load,6,1,722,spatial,even,parity,76,NA
4wedfob3kk7mtkvjh1qb,html-keyboard-response,load,1,1,521,spatial,odd,parity,65,NA
4wedfob3kk7mtkvjh1qb,html-keyboard-response,load,4,1,549,spatial,even,parity,76,NA
4wedfob3kk7mtkvjh1qb,html-keyboard-response,load,7,1,543,spatial,odd,parity,65,NA
4wedfob3kk7mtkvjh1qb,html-keyboard-response,load,2,1,542,spatial,even,parity,76,NA
4wedfob3kk7mtkvjh1qb,corsi,load,NA,0,NA,spatial,NA,NA,NA,NA
4wedfob3kk7mtkvjh1qb,html-keyboard-response,load,4,1,1148,spatial,even,parity,76,NA
4wedfob3kk7mtkvjh1qb,html-keyboard-response,load,7,1,541,spatial,odd,parity,65,NA
4wedfob3kk7mtkvjh1qb,html-keyboard-response,load,3,1,777,spatial,odd,parity,65,NA
4wedfob3kk7mtkvjh1qb,html-keyboard-response,load,8,1,505,spatial,even,parity,76,NA
4wedfob3kk7mtkvjh1qb,html-keyboard-response,load,6,1,569,spatial,even,parity,76,NA
4wedfob3kk7mtkvjh1qb,html-keyboard-response,load,9,1,589,spatial,odd,parity,65,NA
4wedfob3kk7mtkvjh1qb,html-keyboard-response,load,2,1,661,spatial,even,parity,76,NA
4wedfob3kk7mtkvjh1qb,html-keyboard-response,load,1,1,451,spatial,odd,parity,65,NA
4wedfob3kk7mtkvjh1qb,html-keyboard-response,load,7,0,579,spatial,odd,parity,76,NA
4wedfob3kk7mtkvjh1qb,html-keyboard-response,load,3,1,474,spatial,odd,parity,65,NA
4wedfob3kk7mtkvjh1qb,html-keyboard-response,load,9,1,784,spatial,odd,parity,65,NA
4wedfob3kk7mtkvjh1qb,html-keyboard-response,load,2,1,1162,spatial,even,parity,76,NA
4wedfob3kk7mtkvjh1qb,html-keyboard-response,load,6,1,539,spatial,even,parity,76,NA
4wedfob3kk7mtkvjh1qb,html-keyboard-response,load,4,0,579,spatial,even,parity,65,NA
4wedfob3kk7mtkvjh1qb,html-keyboard-response,load,1,1,488,spatial,odd,parity,65,NA
4wedfob3kk7mtkvjh1qb,html-keyboard-response,load,8,1,579,spatial,even,parity,76,NA
4wedfob3kk7mtkvjh1qb,corsi,load,NA,1,NA,spatial,NA,NA,NA,NA
4wedfob3kk7mtkvjh1qb,html-keyboard-response,load,6,1,714,spatial,even,parity,65,NA
4wedfob3kk7mtkvjh1qb,html-keyboard-response,load,8,1,644,spatial,even,parity,65,NA
4wedfob3kk7mtkvjh1qb,html-keyboard-response,load,4,1,742,spatial,even,parity,65,NA
4wedfob3kk7mtkvjh1qb,html-keyboard-response,load,2,1,731,spatial,even,parity,65,NA
4wedfob3kk7mtkvjh1qb,html-keyboard-response,load,9,1,604,spatial,odd,parity,76,NA
4wedfob3kk7mtkvjh1qb,html-keyboard-response,load,7,1,897,spatial,odd,parity,76,NA
4wedfob3kk7mtkvjh1qb,html-keyboard-response,load,3,1,502,spatial,odd,parity,76,NA
4wedfob3kk7mtkvjh1qb,html-keyboard-response,load,1,1,551,spatial,odd,parity,76,NA
4wedfob3kk7mtkvjh1qb,html-keyboard-response,load,4,1,547,spatial,even,parity,65,NA
4wedfob3kk7mtkvjh1qb,html-keyboard-response,load,3,1,530,spatial,odd,parity,76,NA
4wedfob3kk7mtkvjh1qb,html-keyboard-response,load,8,1,513,spatial,even,parity,65,NA
